Exp,ID,Block,trial,trial_type,cueLoc,stimLoc,locDist,FixDur,SOA,CTI,stim,response,correct,RTms,prolific_id,xPixels,yPixels,dpi
SaccadeExp6,17437,Colour,1,exp,5,3,close,600,300,50,P,P,TRUE,627.214000011911,60fe15aa117abf1e8d1dd988,1440,814,2
SaccadeExp6,17437,Colour,2,exp,5,3,close,600,450,200,P,B,FALSE,1525.42800003575,60fe15aa117abf1e8d1dd988,1440,814,2
SaccadeExp6,17437,Colour,3,exp,5,3,close,1800,300,50,P,P,TRUE,788.820000023814,60fe15aa117abf1e8d1dd988,1440,814,2
SaccadeExp6,17437,Colour,4,exp,5,3,close,200,450,200,B,B,TRUE,1019.73700000002,60fe15aa117abf1e8d1dd988,1440,814,2
SaccadeExp6,17437,Colour,5,exp,5,3,close,1000,450,200,R,R,TRUE,821.449000035762,60fe15aa117abf1e8d1dd988,1440,814,2
SaccadeExp6,17437,Colour,6,exp,5,3,close,200,300,50,R,R,TRUE,645.615000011923,60fe15aa117abf1e8d1dd988,1440,814,2
SaccadeExp6,17437,Colour,7,exp,5,3,close,1000,450,200,B,B,TRUE,939.374000023818,60fe15aa117abf1e8d1dd988,1440,814,2
SaccadeExp6,17437,Colour,8,exp,5,1,close,1800,450,200,P,P,TRUE,1059.94799999997,60fe15aa117abf1e8d1dd988,1440,814,2
SaccadeExp6,17437,Colour,9,exp,5,1,close,600,650,400,P,P,TRUE,581.554000011936,60fe15aa117abf1e8d1dd988,1440,814,2
SaccadeExp6,17437,Colour,10,exp,5,2,close,1400,450,200,B,B,TRUE,1396.54500004766,60fe15aa117abf1e8d1dd988,1440,814,2
SaccadeExp6,17437,Colour,11,exp,5,3,close,200,650,400,P,P,TRUE,659.749000023818,60fe15aa117abf1e8d1dd988,1440,814,2
SaccadeExp6,17437,Colour,12,exp,5,3,close,1400,450,200,P,P,TRUE,652.563000023831,60fe15aa117abf1e8d1dd988,1440,814,2
SaccadeExp6,17437,Colour,13,exp,5,2,close,1000,450,200,P,R,FALSE,1207.19300003577,60fe15aa117abf1e8d1dd988,1440,814,2
SaccadeExp6,17437,Colour,14,exp,5,4,close,1000,450,200,R,R,TRUE,839.313000047696,60fe15aa117abf1e8d1dd988,1440,814,2
SaccadeExp6,17437,Colour,15,exp,5,2,close,600,450,200,P,P,TRUE,1441.36900001194,60fe15aa117abf1e8d1dd988,1440,814,2
SaccadeExp6,17437,Colour,16,exp,5,1,close,1000,450,200,B,B,TRUE,1117.03300002386,60fe15aa117abf1e8d1dd988,1440,814,2
SaccadeExp6,17437,Colour,17,exp,5,3,close,1400,650,400,B,B,TRUE,871.307000047702,60fe15aa117abf1e8d1dd988,1440,814,2
SaccadeExp6,17437,Colour,18,exp,5,4,close,1000,650,400,B,B,TRUE,1040.68900002382,60fe15aa117abf1e8d1dd988,1440,814,2
SaccadeExp6,17437,Colour,19,exp,5,3,close,200,450,200,P,P,TRUE,824.658000023861,60fe15aa117abf1e8d1dd988,1440,814,2
SaccadeExp6,17437,Colour,20,exp,5,1,close,1000,650,400,R,R,TRUE,912.10400003579,60fe15aa117abf1e8d1dd988,1440,814,2
SaccadeExp6,17437,Colour,21,exp,5,1,close,1000,650,400,B,B,TRUE,945.288000023866,60fe15aa117abf1e8d1dd988,1440,814,2
SaccadeExp6,17437,Colour,22,exp,5,2,close,200,300,50,B,B,TRUE,858.121000047657,60fe15aa117abf1e8d1dd988,1440,814,2
SaccadeExp6,17437,Colour,23,exp,5,1,close,1800,450,200,R,R,TRUE,816.127000047709,60fe15aa117abf1e8d1dd988,1440,814,2
SaccadeExp6,17437,Colour,24,exp,5,2,close,200,450,200,P,P,TRUE,875.433000035759,60fe15aa117abf1e8d1dd988,1440,814,2
SaccadeExp6,17437,Colour,25,exp,5,1,close,1800,650,400,P,P,TRUE,694.570000000007,60fe15aa117abf1e8d1dd988,1440,814,2
SaccadeExp6,17437,Colour,26,exp,5,3,close,1400,300,50,B,B,TRUE,888.146000023815,60fe15aa117abf1e8d1dd988,1440,814,2
SaccadeExp6,17437,Colour,27,exp,5,3,close,200,650,400,B,B,TRUE,702.462000011932,60fe15aa117abf1e8d1dd988,1440,814,2
SaccadeExp6,17437,Colour,28,exp,5,4,close,600,650,400,P,P,TRUE,816.989999999991,60fe15aa117abf1e8d1dd988,1440,814,2
SaccadeExp6,17437,Colour,29,exp,5,1,close,200,650,400,R,B,FALSE,953.404000011913,60fe15aa117abf1e8d1dd988,1440,814,2
SaccadeExp6,17437,Colour,30,exp,5,2,close,1800,450,200,R,R,TRUE,1088.51200003579,60fe15aa117abf1e8d1dd988,1440,814,2
SaccadeExp6,17437,Colour,31,exp,5,2,close,1800,650,400,P,P,TRUE,759.463000035787,60fe15aa117abf1e8d1dd988,1440,814,2
SaccadeExp6,17437,Colour,32,exp,5,4,close,1800,450,200,P,B,FALSE,832.597000047681,60fe15aa117abf1e8d1dd988,1440,814,2
SaccadeExp6,17437,Colour,33,exp,5,4,close,1400,650,400,B,B,TRUE,537.887000023853,60fe15aa117abf1e8d1dd988,1440,814,2
SaccadeExp6,17437,Colour,34,exp,5,4,close,1000,650,400,P,P,TRUE,519.455000047688,60fe15aa117abf1e8d1dd988,1440,814,2
SaccadeExp6,17437,Colour,35,exp,5,3,close,600,650,400,P,P,TRUE,1272.03899999999,60fe15aa117abf1e8d1dd988,1440,814,2
SaccadeExp6,17437,Colour,36,exp,5,3,close,600,450,200,B,B,TRUE,701.393000011914,60fe15aa117abf1e8d1dd988,1440,814,2
SaccadeExp6,17437,Colour,37,exp,5,2,close,1400,300,50,P,P,TRUE,679.269000047701,60fe15aa117abf1e8d1dd988,1440,814,2
SaccadeExp6,17437,Colour,38,exp,5,2,close,1800,650,400,R,R,TRUE,857.841000023822,60fe15aa117abf1e8d1dd988,1440,814,2
SaccadeExp6,17437,Colour,39,exp,5,3,close,200,300,50,B,P,FALSE,718.118000035756,60fe15aa117abf1e8d1dd988,1440,814,2
SaccadeExp6,17437,Colour,40,exp,5,2,close,1800,300,50,R,B,FALSE,1565.34400001192,60fe15aa117abf1e8d1dd988,1440,814,2
SaccadeExp6,17437,Colour,41,exp,5,2,close,200,450,200,B,B,TRUE,1598.88000004768,60fe15aa117abf1e8d1dd988,1440,814,2
SaccadeExp6,17437,Colour,42,exp,5,4,close,1400,450,200,B,B,TRUE,628.546000023838,60fe15aa117abf1e8d1dd988,1440,814,2
SaccadeExp6,17437,Colour,43,exp,5,2,close,1400,300,50,B,R,FALSE,1022.98600003577,60fe15aa117abf1e8d1dd988,1440,814,2
SaccadeExp6,17437,Colour,44,exp,5,4,close,600,300,50,R,R,TRUE,1096.97600002383,60fe15aa117abf1e8d1dd988,1440,814,2
SaccadeExp6,17437,Colour,45,exp,5,1,close,1400,450,200,R,R,TRUE,848.648999999976,60fe15aa117abf1e8d1dd988,1440,814,2
SaccadeExp6,17437,Colour,46,exp,5,3,close,1800,650,400,B,B,TRUE,712.961000011943,60fe15aa117abf1e8d1dd988,1440,814,2
SaccadeExp6,17437,Colour,47,exp,5,3,close,200,650,400,R,R,TRUE,701.837000035739,60fe15aa117abf1e8d1dd988,1440,814,2
SaccadeExp6,17437,Colour,48,exp,5,2,close,1000,450,200,R,B,FALSE,1205.76899999997,60fe15aa117abf1e8d1dd988,1440,814,2
SaccadeExp6,17437,Colour,49,exp,5,2,close,600,300,50,P,P,TRUE,649.733000000007,60fe15aa117abf1e8d1dd988,1440,814,2
SaccadeExp6,17437,Colour,50,exp,5,4,close,1800,450,200,B,B,TRUE,1500.42900004768,60fe15aa117abf1e8d1dd988,1440,814,2
SaccadeExp6,17437,Colour,51,exp,5,2,close,1000,300,50,B,B,TRUE,905.409999999974,60fe15aa117abf1e8d1dd988,1440,814,2
SaccadeExp6,17437,Colour,52,exp,5,3,close,1400,450,200,R,R,TRUE,1212.234,60fe15aa117abf1e8d1dd988,1440,814,2
SaccadeExp6,17437,Colour,53,exp,5,1,close,1000,450,200,P,P,TRUE,1171.65800003574,60fe15aa117abf1e8d1dd988,1440,814,2
SaccadeExp6,17437,Colour,54,exp,5,4,close,200,650,400,R,R,TRUE,1669.98600002384,60fe15aa117abf1e8d1dd988,1440,814,2
SaccadeExp6,17437,Colour,55,exp,5,1,close,1000,300,50,P,P,TRUE,803.418000047677,60fe15aa117abf1e8d1dd988,1440,814,2
SaccadeExp6,17437,Colour,56,exp,5,3,close,1400,300,50,P,P,TRUE,681.984000047669,60fe15aa117abf1e8d1dd988,1440,814,2
SaccadeExp6,17437,Colour,57,exp,5,2,close,1800,450,200,P,P,TRUE,701.648000047659,60fe15aa117abf1e8d1dd988,1440,814,2
SaccadeExp6,17437,Colour,58,exp,5,4,close,200,300,50,R,R,TRUE,949.375999999989,60fe15aa117abf1e8d1dd988,1440,814,2
SaccadeExp6,17437,Colour,59,exp,5,4,close,1800,650,400,P,P,TRUE,458.371000035782,60fe15aa117abf1e8d1dd988,1440,814,2
SaccadeExp6,17437,Colour,60,exp,5,4,close,1400,650,400,P,P,TRUE,447.519000035769,60fe15aa117abf1e8d1dd988,1440,814,2
SaccadeExp6,17437,Colour,61,exp,5,3,close,1400,300,50,R,R,TRUE,754.485000035784,60fe15aa117abf1e8d1dd988,1440,814,2
SaccadeExp6,17437,Colour,62,exp,5,2,close,600,650,400,B,B,TRUE,670.213000011921,60fe15aa117abf1e8d1dd988,1440,814,2
SaccadeExp6,17437,Colour,63,exp,5,3,close,1400,450,200,B,B,TRUE,1567.76100004767,60fe15aa117abf1e8d1dd988,1440,814,2
SaccadeExp6,17437,Colour,64,exp,5,4,close,1800,300,50,R,R,TRUE,886.855000023847,60fe15aa117abf1e8d1dd988,1440,814,2
SaccadeExp6,17437,Colour,65,exp,5,1,close,1000,300,50,B,B,TRUE,878.415000035777,60fe15aa117abf1e8d1dd988,1440,814,2
SaccadeExp6,17437,Colour,66,exp,5,3,close,600,450,200,R,R,TRUE,908.373000035761,60fe15aa117abf1e8d1dd988,1440,814,2
SaccadeExp6,17437,Colour,67,exp,5,2,close,1400,650,400,B,B,TRUE,1925.03900003579,60fe15aa117abf1e8d1dd988,1440,814,2
SaccadeExp6,17437,Colour,68,exp,5,1,close,600,450,200,B,P,FALSE,989.726000011899,60fe15aa117abf1e8d1dd988,1440,814,2
SaccadeExp6,17437,Colour,69,exp,5,2,close,600,450,200,R,R,TRUE,1101.85400001192,60fe15aa117abf1e8d1dd988,1440,814,2
SaccadeExp6,17437,Colour,70,exp,5,4,close,1400,300,50,R,R,TRUE,763.746000047657,60fe15aa117abf1e8d1dd988,1440,814,2
SaccadeExp6,17437,Colour,71,exp,5,4,close,200,300,50,P,P,TRUE,955.852000000014,60fe15aa117abf1e8d1dd988,1440,814,2
SaccadeExp6,17437,Colour,72,exp,5,2,close,1000,650,400,P,P,TRUE,666.770000023826,60fe15aa117abf1e8d1dd988,1440,814,2
SaccadeExp6,17437,Colour,73,exp,5,2,close,200,650,400,P,P,TRUE,623.278000000049,60fe15aa117abf1e8d1dd988,1440,814,2
SaccadeExp6,17437,Colour,74,exp,5,4,close,1000,450,200,B,B,TRUE,695.772000023862,60fe15aa117abf1e8d1dd988,1440,814,2
SaccadeExp6,17437,Colour,75,exp,5,1,close,200,450,200,P,P,TRUE,1512.10600000003,60fe15aa117abf1e8d1dd988,1440,814,2
SaccadeExp6,17437,Colour,76,exp,5,4,close,1400,450,200,P,B,FALSE,807.988000047626,60fe15aa117abf1e8d1dd988,1440,814,2
SaccadeExp6,17437,Colour,77,exp,5,2,close,600,650,400,R,R,TRUE,868.355000047712,60fe15aa117abf1e8d1dd988,1440,814,2
SaccadeExp6,17437,Colour,78,exp,5,1,close,600,300,50,P,P,TRUE,776.473000047728,60fe15aa117abf1e8d1dd988,1440,814,2
SaccadeExp6,17437,Colour,79,exp,5,1,close,200,300,50,R,R,TRUE,845.871000000043,60fe15aa117abf1e8d1dd988,1440,814,2
SaccadeExp6,17437,Colour,80,exp,5,1,close,600,450,200,P,P,TRUE,1121.82700000005,60fe15aa117abf1e8d1dd988,1440,814,2
SaccadeExp6,17437,Colour,81,exp,5,1,close,1400,650,400,B,B,TRUE,748.41900002386,60fe15aa117abf1e8d1dd988,1440,814,2
SaccadeExp6,17437,Colour,82,exp,5,4,close,1000,300,50,P,P,TRUE,900.349000035785,60fe15aa117abf1e8d1dd988,1440,814,2
SaccadeExp6,17437,Colour,83,exp,5,4,close,1000,300,50,R,R,TRUE,866.417000000016,60fe15aa117abf1e8d1dd988,1440,814,2
SaccadeExp6,17437,Colour,84,exp,5,1,close,600,650,400,B,B,TRUE,618.080000023823,60fe15aa117abf1e8d1dd988,1440,814,2
SaccadeExp6,17437,Colour,85,exp,5,1,close,1400,450,200,B,R,FALSE,1387.92600001197,60fe15aa117abf1e8d1dd988,1440,814,2
SaccadeExp6,17437,Colour,86,exp,5,4,close,1800,300,50,B,B,TRUE,735.783000000054,60fe15aa117abf1e8d1dd988,1440,814,2
SaccadeExp6,17437,Colour,87,exp,5,3,close,1000,300,50,R,R,TRUE,869.845000023837,60fe15aa117abf1e8d1dd988,1440,814,2
SaccadeExp6,17437,Colour,88,exp,5,3,close,1000,450,200,P,P,TRUE,1045.28500003577,60fe15aa117abf1e8d1dd988,1440,814,2
SaccadeExp6,17437,Colour,89,exp,5,1,close,200,300,50,P,R,FALSE,903.827000000048,60fe15aa117abf1e8d1dd988,1440,814,2
SaccadeExp6,17437,Colour,90,exp,5,4,close,1400,300,50,P,B,FALSE,1040.03200002387,60fe15aa117abf1e8d1dd988,1440,814,2
SaccadeExp6,17437,Colour,91,exp,5,3,close,1800,650,400,R,R,TRUE,717.490000023856,60fe15aa117abf1e8d1dd988,1440,814,2
SaccadeExp6,17437,Colour,92,exp,5,4,close,1400,650,400,R,R,TRUE,682.91400004772,60fe15aa117abf1e8d1dd988,1440,814,2
SaccadeExp6,17437,Colour,93,exp,5,1,close,600,650,400,R,R,TRUE,620.738000035752,60fe15aa117abf1e8d1dd988,1440,814,2
SaccadeExp6,17437,Colour,94,exp,5,4,close,600,450,200,P,P,TRUE,863.018000047654,60fe15aa117abf1e8d1dd988,1440,814,2
SaccadeExp6,17437,Colour,95,exp,5,4,close,1800,650,400,R,R,TRUE,506.764000023832,60fe15aa117abf1e8d1dd988,1440,814,2
SaccadeExp6,17437,Colour,96,exp,5,2,close,1800,300,50,B,R,FALSE,1683.98199999996,60fe15aa117abf1e8d1dd988,1440,814,2
SaccadeExp6,17437,Colour,97,exp,5,2,close,200,650,400,R,R,TRUE,565.270000035758,60fe15aa117abf1e8d1dd988,1440,814,2
SaccadeExp6,17437,Colour,98,exp,5,2,close,1000,650,400,B,B,TRUE,526.072000035783,60fe15aa117abf1e8d1dd988,1440,814,2
SaccadeExp6,17437,Colour,99,exp,5,1,close,200,650,400,B,P,FALSE,1531.97400004766,60fe15aa117abf1e8d1dd988,1440,814,2
SaccadeExp6,17437,Colour,100,exp,5,3,close,1000,300,50,P,P,TRUE,748.46100000001,60fe15aa117abf1e8d1dd988,1440,814,2
SaccadeExp6,17437,Colour,101,exp,5,2,close,1400,450,200,R,R,TRUE,807.74500001187,60fe15aa117abf1e8d1dd988,1440,814,2
SaccadeExp6,17437,Colour,102,exp,5,3,close,1400,650,400,P,P,TRUE,621.277000000002,60fe15aa117abf1e8d1dd988,1440,814,2
SaccadeExp6,17437,Colour,103,exp,5,3,close,600,650,400,R,R,TRUE,432.945000023814,60fe15aa117abf1e8d1dd988,1440,814,2
SaccadeExp6,17437,Colour,104,exp,5,1,close,1800,300,50,P,P,TRUE,1714.72700003581,60fe15aa117abf1e8d1dd988,1440,814,2
SaccadeExp6,17437,Colour,105,exp,5,4,close,600,300,50,B,B,TRUE,1545.77900001197,60fe15aa117abf1e8d1dd988,1440,814,2
SaccadeExp6,17437,Colour,106,exp,5,3,close,1800,300,50,R,R,TRUE,684.33900004765,60fe15aa117abf1e8d1dd988,1440,814,2
SaccadeExp6,17437,Colour,107,exp,5,2,close,1800,300,50,P,P,TRUE,1216.53100003581,60fe15aa117abf1e8d1dd988,1440,814,2
SaccadeExp6,17437,Colour,108,exp,5,2,close,1000,650,400,R,R,TRUE,1036.36399999994,60fe15aa117abf1e8d1dd988,1440,814,2
SaccadeExp6,17437,Colour,109,exp,5,2,close,600,650,400,P,P,TRUE,761.501999999979,60fe15aa117abf1e8d1dd988,1440,814,2
SaccadeExp6,17437,Colour,110,exp,5,2,close,200,300,50,P,P,TRUE,650.366000023787,60fe15aa117abf1e8d1dd988,1440,814,2
SaccadeExp6,17437,Colour,111,exp,5,3,close,1800,450,200,R,R,TRUE,584.73200004769,60fe15aa117abf1e8d1dd988,1440,814,2
SaccadeExp6,17437,Colour,112,exp,5,1,close,200,450,200,R,R,TRUE,1417.52800003579,60fe15aa117abf1e8d1dd988,1440,814,2
SaccadeExp6,17437,Colour,113,exp,5,1,close,200,300,50,B,B,TRUE,1504.35200002382,60fe15aa117abf1e8d1dd988,1440,814,2
SaccadeExp6,17437,Colour,114,exp,5,4,close,1800,650,400,B,B,TRUE,602.609000023804,60fe15aa117abf1e8d1dd988,1440,814,2
SaccadeExp6,17437,Colour,115,exp,5,1,close,1800,300,50,B,B,TRUE,703.897000035737,60fe15aa117abf1e8d1dd988,1440,814,2
SaccadeExp6,17437,Colour,116,exp,5,3,close,1000,300,50,B,P,FALSE,1287.79099999997,60fe15aa117abf1e8d1dd988,1440,814,2
SaccadeExp6,17437,Colour,117,exp,5,2,close,1400,650,400,P,P,TRUE,646.783000047668,60fe15aa117abf1e8d1dd988,1440,814,2
SaccadeExp6,17437,Colour,118,exp,5,2,close,1400,450,200,P,P,TRUE,574.763000047649,60fe15aa117abf1e8d1dd988,1440,814,2
SaccadeExp6,17437,Colour,119,exp,5,4,close,600,300,50,P,R,FALSE,1856.26900002384,60fe15aa117abf1e8d1dd988,1440,814,2
SaccadeExp6,17437,Colour,120,exp,5,4,close,200,450,200,B,B,TRUE,1101.60700003582,60fe15aa117abf1e8d1dd988,1440,814,2
SaccadeExp6,17437,Colour,121,exp,5,3,close,1000,650,400,P,P,TRUE,599.431000035722,60fe15aa117abf1e8d1dd988,1440,814,2
SaccadeExp6,17437,Colour,122,exp,5,1,close,1800,450,200,B,B,TRUE,836.925000035786,60fe15aa117abf1e8d1dd988,1440,814,2
SaccadeExp6,17437,Colour,123,exp,5,4,close,1400,450,200,R,R,TRUE,900.363000011886,60fe15aa117abf1e8d1dd988,1440,814,2
SaccadeExp6,17437,Colour,124,exp,5,1,close,1400,300,50,B,R,FALSE,1182.54700000002,60fe15aa117abf1e8d1dd988,1440,814,2
SaccadeExp6,17437,Colour,125,exp,5,4,close,600,650,400,R,R,TRUE,596.739000047673,60fe15aa117abf1e8d1dd988,1440,814,2
SaccadeExp6,17437,Colour,126,exp,5,2,close,200,300,50,R,R,TRUE,827.76300001191,60fe15aa117abf1e8d1dd988,1440,814,2
SaccadeExp6,17437,Colour,127,exp,5,4,close,200,650,400,P,P,TRUE,1045.17700002389,60fe15aa117abf1e8d1dd988,1440,814,2
SaccadeExp6,17437,Colour,128,exp,5,3,close,600,300,50,R,R,TRUE,914.335000011954,60fe15aa117abf1e8d1dd988,1440,814,2
SaccadeExp6,17437,Colour,129,exp,5,4,close,600,650,400,B,B,TRUE,563.670000047656,60fe15aa117abf1e8d1dd988,1440,814,2
SaccadeExp6,17437,Colour,130,exp,5,2,close,1000,300,50,R,R,TRUE,1601.25800000003,60fe15aa117abf1e8d1dd988,1440,814,2
SaccadeExp6,17437,Colour,131,exp,5,2,close,1400,300,50,R,R,TRUE,939.07000001194,60fe15aa117abf1e8d1dd988,1440,814,2
SaccadeExp6,17437,Colour,132,exp,5,4,close,200,650,400,B,B,TRUE,626.146999999997,60fe15aa117abf1e8d1dd988,1440,814,2
SaccadeExp6,17437,Colour,133,exp,5,3,close,1400,650,400,R,R,TRUE,699.001000047661,60fe15aa117abf1e8d1dd988,1440,814,2
SaccadeExp6,17437,Colour,134,exp,5,1,close,1800,650,400,B,B,TRUE,991.607000011951,60fe15aa117abf1e8d1dd988,1440,814,2
SaccadeExp6,17437,Colour,135,exp,5,1,close,600,300,50,R,R,TRUE,684.339000011911,60fe15aa117abf1e8d1dd988,1440,814,2
SaccadeExp6,17437,Colour,136,exp,5,2,close,1800,650,400,B,B,TRUE,715.845000011963,60fe15aa117abf1e8d1dd988,1440,814,2
SaccadeExp6,17437,Colour,137,exp,5,1,close,1400,300,50,R,R,TRUE,989.955000023823,60fe15aa117abf1e8d1dd988,1440,814,2
SaccadeExp6,17437,Colour,138,exp,5,4,close,600,450,200,R,R,TRUE,833.825000035809,60fe15aa117abf1e8d1dd988,1440,814,2
SaccadeExp6,17437,Colour,139,exp,5,3,close,200,300,50,P,P,TRUE,707.925000035786,60fe15aa117abf1e8d1dd988,1440,814,2
SaccadeExp6,17437,Colour,140,exp,5,1,close,1400,650,400,P,P,TRUE,678.449000023887,60fe15aa117abf1e8d1dd988,1440,814,2
SaccadeExp6,17437,Colour,141,exp,5,1,close,1000,300,50,R,R,TRUE,840.12500003574,60fe15aa117abf1e8d1dd988,1440,814,2
SaccadeExp6,17437,Colour,142,exp,5,2,close,600,300,50,R,R,TRUE,997.475000011967,60fe15aa117abf1e8d1dd988,1440,814,2
SaccadeExp6,17437,Colour,143,exp,5,2,close,1400,650,400,R,R,TRUE,736.777000023867,60fe15aa117abf1e8d1dd988,1440,814,2
SaccadeExp6,17437,Colour,144,exp,5,2,close,600,450,200,B,B,TRUE,800.114000035799,60fe15aa117abf1e8d1dd988,1440,814,2
SaccadeExp6,17437,Colour,145,exp,5,4,close,1800,300,50,P,P,TRUE,1275.11000003573,60fe15aa117abf1e8d1dd988,1440,814,2
SaccadeExp6,17437,Colour,146,exp,5,1,close,1800,300,50,R,R,TRUE,679.692000011913,60fe15aa117abf1e8d1dd988,1440,814,2
SaccadeExp6,17437,Colour,147,exp,5,4,close,200,300,50,B,B,TRUE,756.384000023827,60fe15aa117abf1e8d1dd988,1440,814,2
SaccadeExp6,17437,Colour,148,exp,5,4,close,1000,450,200,P,P,TRUE,1409.0520000119,60fe15aa117abf1e8d1dd988,1440,814,2
SaccadeExp6,17437,Colour,149,exp,5,1,close,200,650,400,P,P,TRUE,703.656000023824,60fe15aa117abf1e8d1dd988,1440,814,2
SaccadeExp6,17437,Colour,150,exp,5,3,close,1800,650,400,P,P,TRUE,584.827000011923,60fe15aa117abf1e8d1dd988,1440,814,2
SaccadeExp6,17437,Colour,151,exp,5,1,close,600,300,50,B,R,FALSE,780.267000011867,60fe15aa117abf1e8d1dd988,1440,814,2
SaccadeExp6,17437,Colour,152,exp,5,3,close,1800,300,50,B,P,FALSE,990.863000035752,60fe15aa117abf1e8d1dd988,1440,814,2
SaccadeExp6,17437,Colour,153,exp,5,4,close,1000,650,400,R,R,TRUE,545.503000035766,60fe15aa117abf1e8d1dd988,1440,814,2
SaccadeExp6,17437,Colour,154,exp,5,1,close,1400,650,400,R,R,TRUE,710.287000047741,60fe15aa117abf1e8d1dd988,1440,814,2
SaccadeExp6,17437,Colour,155,exp,5,3,close,200,450,200,R,P,FALSE,933.189000000013,60fe15aa117abf1e8d1dd988,1440,814,2
SaccadeExp6,17437,Colour,156,exp,5,4,close,1000,300,50,B,P,FALSE,1199.5650000358,60fe15aa117abf1e8d1dd988,1440,814,2
SaccadeExp6,17437,Colour,157,exp,5,3,close,1000,650,400,R,P,FALSE,451.061000035726,60fe15aa117abf1e8d1dd988,1440,814,2
SaccadeExp6,17437,Colour,158,exp,5,4,close,1400,300,50,B,B,TRUE,1417.12699999998,60fe15aa117abf1e8d1dd988,1440,814,2
SaccadeExp6,17437,Colour,159,exp,5,1,close,1800,650,400,R,R,TRUE,674.237000047695,60fe15aa117abf1e8d1dd988,1440,814,2
SaccadeExp6,17437,Colour,160,exp,5,3,close,1800,450,200,P,P,TRUE,643.301000023843,60fe15aa117abf1e8d1dd988,1440,814,2
SaccadeExp6,17437,Colour,161,exp,5,2,close,600,300,50,B,B,TRUE,1379.11700003571,60fe15aa117abf1e8d1dd988,1440,814,2
SaccadeExp6,17437,Colour,162,exp,5,4,close,200,450,200,P,P,TRUE,698.479000011925,60fe15aa117abf1e8d1dd988,1440,814,2
SaccadeExp6,17437,Colour,163,exp,5,1,close,200,450,200,B,R,FALSE,1003.11499999999,60fe15aa117abf1e8d1dd988,1440,814,2
SaccadeExp6,17437,Colour,164,exp,5,2,close,1000,450,200,B,B,TRUE,1105.49300003576,60fe15aa117abf1e8d1dd988,1440,814,2
SaccadeExp6,17437,Colour,165,exp,5,2,close,200,650,400,B,P,FALSE,681.902000047732,60fe15aa117abf1e8d1dd988,1440,814,2
SaccadeExp6,17437,Colour,166,exp,5,1,close,1000,650,400,P,P,TRUE,1090.94400002388,60fe15aa117abf1e8d1dd988,1440,814,2
SaccadeExp6,17437,Colour,167,exp,5,3,close,600,300,50,B,B,TRUE,1845.50400004769,60fe15aa117abf1e8d1dd988,1440,814,2
SaccadeExp6,17437,Colour,168,exp,5,1,close,1000,450,200,R,R,TRUE,601.803000035812,60fe15aa117abf1e8d1dd988,1440,814,2
SaccadeExp6,17437,Colour,169,exp,5,3,close,1800,450,200,B,B,TRUE,1363.43100004771,60fe15aa117abf1e8d1dd988,1440,814,2
SaccadeExp6,17437,Colour,170,exp,5,4,close,600,450,200,B,B,TRUE,707.699000011897,60fe15aa117abf1e8d1dd988,1440,814,2
SaccadeExp6,17437,Colour,171,exp,5,2,close,200,450,200,R,P,FALSE,1112.66700000002,60fe15aa117abf1e8d1dd988,1440,814,2
SaccadeExp6,17437,Colour,172,exp,5,3,close,1000,650,400,B,P,FALSE,503.59100002388,60fe15aa117abf1e8d1dd988,1440,814,2
SaccadeExp6,17437,Colour,173,exp,5,2,close,1000,300,50,P,P,TRUE,640.911000011954,60fe15aa117abf1e8d1dd988,1440,814,2
SaccadeExp6,17437,Colour,174,exp,5,2,close,1800,450,200,B,B,TRUE,708.878000035766,60fe15aa117abf1e8d1dd988,1440,814,2
SaccadeExp6,17437,Colour,175,exp,5,4,close,200,450,200,R,R,TRUE,925.880000011879,60fe15aa117abf1e8d1dd988,1440,814,2
SaccadeExp6,17437,Colour,176,exp,5,4,close,1800,450,200,R,B,FALSE,1129.47600000002,60fe15aa117abf1e8d1dd988,1440,814,2
SaccadeExp6,17437,Colour,177,exp,5,1,close,1400,450,200,P,P,TRUE,626.141999999993,60fe15aa117abf1e8d1dd988,1440,814,2
SaccadeExp6,17437,Colour,178,exp,5,1,close,1400,300,50,P,P,TRUE,674.650000047637,60fe15aa117abf1e8d1dd988,1440,814,2
SaccadeExp6,17437,Colour,179,exp,5,1,close,600,450,200,R,R,TRUE,536.340000047698,60fe15aa117abf1e8d1dd988,1440,814,2
SaccadeExp6,17437,Colour,180,exp,5,3,close,600,650,400,B,B,TRUE,1113.55800001195,60fe15aa117abf1e8d1dd988,1440,814,2
SaccadeExp6,17437,Central,1,exp,5,1,close,200,450,200,P,B,FALSE,274.24500002386,60fe15aa117abf1e8d1dd988,1440,814,2
SaccadeExp6,17437,Central,2,exp,5,4,close,200,300,50,R,B,FALSE,1181.68900001189,60fe15aa117abf1e8d1dd988,1440,814,2
SaccadeExp6,17437,Central,3,exp,5,1,close,1800,650,400,R,R,TRUE,1239.08100000001,60fe15aa117abf1e8d1dd988,1440,814,2
SaccadeExp6,17437,Central,4,exp,5,2,close,600,650,400,R,R,TRUE,676.126999999979,60fe15aa117abf1e8d1dd988,1440,814,2
SaccadeExp6,17437,Central,5,exp,5,1,close,1400,450,200,R,R,TRUE,488.643000047654,60fe15aa117abf1e8d1dd988,1440,814,2
SaccadeExp6,17437,Central,6,exp,5,4,close,200,300,50,B,P,FALSE,694.929000035743,60fe15aa117abf1e8d1dd988,1440,814,2
SaccadeExp6,17437,Central,7,exp,5,1,close,200,450,200,B,P,FALSE,547.563000023831,60fe15aa117abf1e8d1dd988,1440,814,2
SaccadeExp6,17437,Central,8,exp,5,1,close,1000,450,200,B,B,TRUE,691.203000035719,60fe15aa117abf1e8d1dd988,1440,814,2
SaccadeExp6,17437,Central,9,exp,5,2,close,1000,450,200,B,P,FALSE,384.969000047655,60fe15aa117abf1e8d1dd988,1440,814,2
SaccadeExp6,17437,Central,10,exp,5,3,close,1000,300,50,P,B,FALSE,124.083000047714,60fe15aa117abf1e8d1dd988,1440,814,2
SaccadeExp6,17437,Central,11,exp,5,2,close,1000,650,400,P,P,TRUE,552.815000023809,60fe15aa117abf1e8d1dd988,1440,814,2
SaccadeExp6,17437,Central,12,exp,5,4,close,1000,300,50,B,B,TRUE,743.269000023836,60fe15aa117abf1e8d1dd988,1440,814,2
SaccadeExp6,17437,Central,13,exp,5,2,close,200,450,200,R,B,FALSE,831.373000023887,60fe15aa117abf1e8d1dd988,1440,814,2
SaccadeExp6,17437,Central,14,exp,5,1,close,1400,300,50,P,P,TRUE,486.420999999973,60fe15aa117abf1e8d1dd988,1440,814,2
SaccadeExp6,17437,Central,15,exp,5,2,close,1800,650,400,R,R,TRUE,838.828000035719,60fe15aa117abf1e8d1dd988,1440,814,2
SaccadeExp6,17437,Central,16,exp,5,3,close,1400,650,400,B,P,FALSE,620.024000023957,60fe15aa117abf1e8d1dd988,1440,814,2
SaccadeExp6,17437,Central,17,exp,5,3,close,1000,650,400,R,R,TRUE,788.98000002373,60fe15aa117abf1e8d1dd988,1440,814,2
SaccadeExp6,17437,Central,18,exp,5,2,close,600,300,50,B,B,TRUE,979.993999999948,60fe15aa117abf1e8d1dd988,1440,814,2
SaccadeExp6,17437,Central,19,exp,5,3,close,1000,450,200,B,B,TRUE,762.572000023909,60fe15aa117abf1e8d1dd988,1440,814,2
SaccadeExp6,17437,Central,20,exp,5,1,close,200,300,50,B,R,FALSE,889.236000000034,60fe15aa117abf1e8d1dd988,1440,814,2
SaccadeExp6,17437,Central,21,exp,5,2,close,1800,300,50,P,P,TRUE,1269.13400004758,60fe15aa117abf1e8d1dd988,1440,814,2
SaccadeExp6,17437,Central,22,exp,5,4,close,200,650,400,R,R,TRUE,841.732000000076,60fe15aa117abf1e8d1dd988,1440,814,2
SaccadeExp6,17437,Central,23,exp,5,4,close,1800,450,200,B,B,TRUE,771.919000011869,60fe15aa117abf1e8d1dd988,1440,814,2
SaccadeExp6,17437,Central,24,exp,5,2,close,1400,650,400,P,P,TRUE,687.645000047749,60fe15aa117abf1e8d1dd988,1440,814,2
SaccadeExp6,17437,Central,25,exp,5,4,close,1000,650,400,P,R,FALSE,1171.58499999996,60fe15aa117abf1e8d1dd988,1440,814,2
SaccadeExp6,17437,Central,26,exp,5,4,close,200,650,400,B,R,FALSE,567.601000011899,60fe15aa117abf1e8d1dd988,1440,814,2
SaccadeExp6,17437,Central,27,exp,5,3,close,600,650,400,R,R,TRUE,634.087000000058,60fe15aa117abf1e8d1dd988,1440,814,2
SaccadeExp6,17437,Central,28,exp,5,3,close,1800,300,50,B,B,TRUE,1133.64300003578,60fe15aa117abf1e8d1dd988,1440,814,2
SaccadeExp6,17437,Central,29,exp,5,3,close,200,300,50,R,B,FALSE,590.058000023942,60fe15aa117abf1e8d1dd988,1440,814,2
SaccadeExp6,17437,Central,30,exp,5,3,close,1800,450,200,P,P,TRUE,792.51800003578,60fe15aa117abf1e8d1dd988,1440,814,2
SaccadeExp6,17437,Central,31,exp,5,1,close,1400,650,400,P,R,FALSE,1081.71200002381,60fe15aa117abf1e8d1dd988,1440,814,2
SaccadeExp6,17437,Central,32,exp,5,1,close,1000,450,200,P,P,TRUE,1303.26699999999,60fe15aa117abf1e8d1dd988,1440,814,2
SaccadeExp6,17437,Central,33,exp,5,2,close,1400,300,50,P,B,FALSE,1057.16700003576,60fe15aa117abf1e8d1dd988,1440,814,2
SaccadeExp6,17437,Central,34,exp,5,2,close,1800,650,400,P,P,TRUE,765.189000047743,60fe15aa117abf1e8d1dd988,1440,814,2
SaccadeExp6,17437,Central,35,exp,5,1,close,200,650,400,B,B,TRUE,791.567000011913,60fe15aa117abf1e8d1dd988,1440,814,2
SaccadeExp6,17437,Central,36,exp,5,4,close,200,450,200,B,P,FALSE,916.105000035837,60fe15aa117abf1e8d1dd988,1440,814,2
SaccadeExp6,17437,Central,37,exp,5,3,close,1000,300,50,B,B,TRUE,751.607000023825,60fe15aa117abf1e8d1dd988,1440,814,2
SaccadeExp6,17437,Central,38,exp,5,3,close,600,650,400,B,R,FALSE,784.518000023905,60fe15aa117abf1e8d1dd988,1440,814,2
SaccadeExp6,17437,Central,39,exp,5,2,close,200,650,400,P,P,TRUE,1132.93000003579,60fe15aa117abf1e8d1dd988,1440,814,2
SaccadeExp6,17437,Central,40,exp,5,3,close,1800,300,50,R,B,FALSE,918.406000047689,60fe15aa117abf1e8d1dd988,1440,814,2
SaccadeExp6,17437,Central,41,exp,5,2,close,600,450,200,P,B,FALSE,1174.62500004773,60fe15aa117abf1e8d1dd988,1440,814,2
SaccadeExp6,17437,Central,42,exp,5,3,close,600,650,400,P,B,FALSE,474.669000023743,60fe15aa117abf1e8d1dd988,1440,814,2
SaccadeExp6,17437,Central,43,exp,5,2,close,200,300,50,P,P,TRUE,601.98900000006,60fe15aa117abf1e8d1dd988,1440,814,2
SaccadeExp6,17437,Central,44,exp,5,3,close,1400,300,50,P,R,FALSE,697.419999999925,60fe15aa117abf1e8d1dd988,1440,814,2
SaccadeExp6,17437,Central,45,exp,5,2,close,1800,450,200,R,R,TRUE,765.218000011984,60fe15aa117abf1e8d1dd988,1440,814,2
SaccadeExp6,17437,Central,46,exp,5,3,close,1800,450,200,R,R,TRUE,495.552000012016,60fe15aa117abf1e8d1dd988,1440,814,2
SaccadeExp6,17437,Central,47,exp,5,1,close,1400,650,400,B,B,TRUE,934.821000047727,60fe15aa117abf1e8d1dd988,1440,814,2
SaccadeExp6,17437,Central,48,exp,5,3,close,200,450,200,P,R,FALSE,601.431000047596,60fe15aa117abf1e8d1dd988,1440,814,2
SaccadeExp6,17437,Central,49,exp,5,1,close,600,450,200,P,P,TRUE,626.277000023751,60fe15aa117abf1e8d1dd988,1440,814,2
SaccadeExp6,17437,Central,50,exp,5,4,close,600,650,400,B,B,TRUE,683.869000047678,60fe15aa117abf1e8d1dd988,1440,814,2
SaccadeExp6,17437,Central,51,exp,5,3,close,1800,650,400,P,P,TRUE,1924.74100003578,60fe15aa117abf1e8d1dd988,1440,814,2
SaccadeExp6,17437,Central,52,exp,5,4,close,600,450,200,B,B,TRUE,787.907000035746,60fe15aa117abf1e8d1dd988,1440,814,2
SaccadeExp6,17437,Central,53,exp,5,3,close,600,450,200,B,R,FALSE,1376.60500003584,60fe15aa117abf1e8d1dd988,1440,814,2
SaccadeExp6,17437,Central,54,exp,5,3,close,200,650,400,R,R,TRUE,597.209000047762,60fe15aa117abf1e8d1dd988,1440,814,2
SaccadeExp6,17437,Central,55,exp,5,3,close,1400,300,50,B,B,TRUE,981.581000023754,60fe15aa117abf1e8d1dd988,1440,814,2
SaccadeExp6,17437,Central,56,exp,5,4,close,1000,650,400,R,B,FALSE,532.892999999924,60fe15aa117abf1e8d1dd988,1440,814,2
SaccadeExp6,17437,Central,57,exp,5,4,close,1400,450,200,P,P,TRUE,763.2350000476,60fe15aa117abf1e8d1dd988,1440,814,2
SaccadeExp6,17437,Central,58,exp,5,1,close,600,300,50,R,P,FALSE,1511.38300003577,60fe15aa117abf1e8d1dd988,1440,814,2
SaccadeExp6,17437,Central,59,exp,5,1,close,1000,300,50,B,B,TRUE,911.638000000035,60fe15aa117abf1e8d1dd988,1440,814,2
SaccadeExp6,17437,Central,60,exp,5,3,close,1000,450,200,R,R,TRUE,965.64600004768,60fe15aa117abf1e8d1dd988,1440,814,2
SaccadeExp6,17437,Central,61,exp,5,4,close,1000,300,50,R,B,FALSE,1652.81800003583,60fe15aa117abf1e8d1dd988,1440,814,2
SaccadeExp6,17437,Central,62,exp,5,3,close,200,450,200,B,B,TRUE,820.631000011927,60fe15aa117abf1e8d1dd988,1440,814,2
SaccadeExp6,17437,Central,63,exp,5,2,close,1000,650,400,R,R,TRUE,822.543000035686,60fe15aa117abf1e8d1dd988,1440,814,2
SaccadeExp6,17437,Central,64,exp,5,1,close,600,300,50,B,B,TRUE,930.925000000047,60fe15aa117abf1e8d1dd988,1440,814,2
SaccadeExp6,17437,Central,65,exp,5,3,close,200,450,200,R,R,TRUE,957.293000023812,60fe15aa117abf1e8d1dd988,1440,814,2
SaccadeExp6,17437,Central,66,exp,5,4,close,1400,450,200,R,B,FALSE,590.119000023929,60fe15aa117abf1e8d1dd988,1440,814,2
SaccadeExp6,17437,Central,67,exp,5,1,close,1000,450,200,R,B,FALSE,277.647000000114,60fe15aa117abf1e8d1dd988,1440,814,2
SaccadeExp6,17437,Central,68,exp,5,2,close,1800,650,400,B,B,TRUE,1188.25,60fe15aa117abf1e8d1dd988,1440,814,2
SaccadeExp6,17437,Central,69,exp,5,3,close,1400,450,200,R,R,TRUE,759.218000011984,60fe15aa117abf1e8d1dd988,1440,814,2
SaccadeExp6,17437,Central,70,exp,5,4,close,600,300,50,B,B,TRUE,788.798000023933,60fe15aa117abf1e8d1dd988,1440,814,2
SaccadeExp6,17437,Central,71,exp,5,1,close,1400,300,50,R,P,FALSE,1581.40299999993,60fe15aa117abf1e8d1dd988,1440,814,2
SaccadeExp6,17437,Central,72,exp,5,3,close,600,450,200,P,B,FALSE,1127.223,60fe15aa117abf1e8d1dd988,1440,814,2
SaccadeExp6,17437,Central,73,exp,5,4,close,1000,300,50,P,B,FALSE,848.367000000086,60fe15aa117abf1e8d1dd988,1440,814,2
SaccadeExp6,17437,Central,74,exp,5,2,close,600,300,50,R,R,TRUE,658.392000023741,60fe15aa117abf1e8d1dd988,1440,814,2
SaccadeExp6,17437,Central,75,exp,5,3,close,600,300,50,R,P,FALSE,1536.43600004772,60fe15aa117abf1e8d1dd988,1440,814,2
SaccadeExp6,17437,Central,76,exp,5,4,close,1800,300,50,R,B,FALSE,1023.12800004776,60fe15aa117abf1e8d1dd988,1440,814,2
SaccadeExp6,17437,Central,77,exp,5,4,close,1400,300,50,P,P,TRUE,954.440000023926,60fe15aa117abf1e8d1dd988,1440,814,2
SaccadeExp6,17437,Central,78,exp,5,3,close,1800,650,400,B,B,TRUE,901.956000023754,60fe15aa117abf1e8d1dd988,1440,814,2
SaccadeExp6,17437,Central,79,exp,5,3,close,1400,450,200,B,P,FALSE,1317.06500001182,60fe15aa117abf1e8d1dd988,1440,814,2
SaccadeExp6,17437,Central,80,exp,5,4,close,600,300,50,R,R,TRUE,984.467000035802,60fe15aa117abf1e8d1dd988,1440,814,2
SaccadeExp6,17437,Central,81,exp,5,2,close,1400,650,400,B,P,FALSE,1156.17100002384,60fe15aa117abf1e8d1dd988,1440,814,2
SaccadeExp6,17437,Central,82,exp,5,1,close,600,450,200,B,B,TRUE,655.559000011999,60fe15aa117abf1e8d1dd988,1440,814,2
SaccadeExp6,17437,Central,83,exp,5,3,close,200,650,400,P,P,TRUE,1054.20099999988,60fe15aa117abf1e8d1dd988,1440,814,2
SaccadeExp6,17437,Central,84,exp,5,3,close,1400,650,400,P,R,FALSE,1204.505000012,60fe15aa117abf1e8d1dd988,1440,814,2
SaccadeExp6,17437,Central,85,exp,5,3,close,600,450,200,R,P,FALSE,1228.5110000358,60fe15aa117abf1e8d1dd988,1440,814,2
SaccadeExp6,17437,Central,86,exp,5,3,close,200,650,400,B,P,FALSE,765.641000035685,60fe15aa117abf1e8d1dd988,1440,814,2
SaccadeExp6,17437,Central,87,exp,5,4,close,600,650,400,P,P,TRUE,941.2350000476,60fe15aa117abf1e8d1dd988,1440,814,2
SaccadeExp6,17437,Central,88,exp,5,3,close,600,300,50,B,R,FALSE,836.658999999985,60fe15aa117abf1e8d1dd988,1440,814,2
SaccadeExp6,17437,Central,89,exp,5,4,close,1800,650,400,P,B,FALSE,969.365000035847,60fe15aa117abf1e8d1dd988,1440,814,2
SaccadeExp6,17437,Central,90,exp,5,2,close,1000,450,200,R,R,TRUE,570.975000047591,60fe15aa117abf1e8d1dd988,1440,814,2
SaccadeExp6,17437,Central,91,exp,5,4,close,1400,300,50,R,R,TRUE,905.543999999994,60fe15aa117abf1e8d1dd988,1440,814,2
SaccadeExp6,17437,Central,92,exp,5,2,close,1000,450,200,P,P,TRUE,551.418000035686,60fe15aa117abf1e8d1dd988,1440,814,2
SaccadeExp6,17437,Central,93,exp,5,2,close,1000,300,50,R,B,FALSE,772.972000000067,60fe15aa117abf1e8d1dd988,1440,814,2
SaccadeExp6,17437,Central,94,exp,5,4,close,1000,450,200,B,B,TRUE,639.632999999914,60fe15aa117abf1e8d1dd988,1440,814,2
SaccadeExp6,17437,Central,95,exp,5,3,close,1400,450,200,P,P,TRUE,481.579000012018,60fe15aa117abf1e8d1dd988,1440,814,2
SaccadeExp6,17437,Central,96,exp,5,4,close,1400,650,400,B,R,FALSE,1417.22700001183,60fe15aa117abf1e8d1dd988,1440,814,2
SaccadeExp6,17437,Central,97,exp,5,4,close,1800,650,400,B,B,TRUE,1007.33300002385,60fe15aa117abf1e8d1dd988,1440,814,2
SaccadeExp6,17437,Central,98,exp,5,3,close,1000,650,400,B,R,FALSE,1118.1190000358,60fe15aa117abf1e8d1dd988,1440,814,2
SaccadeExp6,17437,Central,99,exp,5,1,close,600,650,400,R,R,TRUE,554.600000011967,60fe15aa117abf1e8d1dd988,1440,814,2
SaccadeExp6,17437,Central,100,exp,5,1,close,1800,450,200,R,P,FALSE,999.392000023741,60fe15aa117abf1e8d1dd988,1440,814,2
SaccadeExp6,17437,Central,101,exp,5,1,close,1800,450,200,P,P,TRUE,1390.00200004759,60fe15aa117abf1e8d1dd988,1440,814,2
SaccadeExp6,17437,Central,102,exp,5,1,close,1800,650,400,P,P,TRUE,577.561000035843,60fe15aa117abf1e8d1dd988,1440,814,2
SaccadeExp6,17437,Central,103,exp,5,1,close,1400,650,400,R,P,FALSE,552.613000012003,60fe15aa117abf1e8d1dd988,1440,814,2
SaccadeExp6,17437,Central,104,exp,5,2,close,1000,650,400,B,B,TRUE,810.119000023929,60fe15aa117abf1e8d1dd988,1440,814,2
SaccadeExp6,17437,Central,105,exp,5,4,close,200,650,400,P,B,FALSE,621.899000023957,60fe15aa117abf1e8d1dd988,1440,814,2
SaccadeExp6,17437,Central,106,exp,5,2,close,1800,300,50,R,R,TRUE,1372.22100002388,60fe15aa117abf1e8d1dd988,1440,814,2
SaccadeExp6,17437,Central,107,exp,5,1,close,1000,300,50,R,R,TRUE,680.141999999993,60fe15aa117abf1e8d1dd988,1440,814,2
SaccadeExp6,17437,Central,108,exp,5,2,close,1000,300,50,B,B,TRUE,650.267999999924,60fe15aa117abf1e8d1dd988,1440,814,2
SaccadeExp6,17437,Central,109,exp,5,2,close,1800,450,200,B,B,TRUE,882.164000035729,60fe15aa117abf1e8d1dd988,1440,814,2
SaccadeExp6,17437,Central,110,exp,5,1,close,200,300,50,R,R,TRUE,702.854000023799,60fe15aa117abf1e8d1dd988,1440,814,2
SaccadeExp6,17437,Central,111,exp,5,1,close,1400,450,200,P,R,FALSE,744.636000035796,60fe15aa117abf1e8d1dd988,1440,814,2
SaccadeExp6,17437,Central,112,exp,5,2,close,1400,300,50,B,B,TRUE,1484.51400001184,60fe15aa117abf1e8d1dd988,1440,814,2
SaccadeExp6,17437,Central,113,exp,5,2,close,200,300,50,B,B,TRUE,758.086000012001,60fe15aa117abf1e8d1dd988,1440,814,2
SaccadeExp6,17437,Central,114,exp,5,4,close,600,450,200,P,B,FALSE,738.47200003569,60fe15aa117abf1e8d1dd988,1440,814,2
SaccadeExp6,17437,Central,115,exp,5,4,close,600,450,200,R,R,TRUE,995.324000011897,60fe15aa117abf1e8d1dd988,1440,814,2
SaccadeExp6,17437,Central,116,exp,5,1,close,1800,300,50,P,P,TRUE,725.116000012029,60fe15aa117abf1e8d1dd988,1440,814,2
SaccadeExp6,17437,Central,117,exp,5,1,close,1800,450,200,B,R,FALSE,580.482000000076,60fe15aa117abf1e8d1dd988,1440,814,2
SaccadeExp6,17437,Central,118,exp,5,4,close,1400,300,50,B,B,TRUE,649.420000012033,60fe15aa117abf1e8d1dd988,1440,814,2
SaccadeExp6,17437,Central,119,exp,5,4,close,1800,300,50,P,B,FALSE,705.049000023864,60fe15aa117abf1e8d1dd988,1440,814,2
SaccadeExp6,17437,Central,120,exp,5,4,close,1400,650,400,R,R,TRUE,575.839000035776,60fe15aa117abf1e8d1dd988,1440,814,2
SaccadeExp6,17437,Central,121,exp,5,3,close,200,300,50,P,P,TRUE,853.829000012018,60fe15aa117abf1e8d1dd988,1440,814,2
SaccadeExp6,17437,Central,122,exp,5,2,close,1000,300,50,P,P,TRUE,700.595000023954,60fe15aa117abf1e8d1dd988,1440,814,2
SaccadeExp6,17437,Central,123,exp,5,4,close,200,300,50,P,P,TRUE,916.368000023765,60fe15aa117abf1e8d1dd988,1440,814,2
SaccadeExp6,17437,Central,124,exp,5,4,close,600,650,400,R,R,TRUE,655.168000023812,60fe15aa117abf1e8d1dd988,1440,814,2
SaccadeExp6,17437,Central,125,exp,5,1,close,600,650,400,P,P,TRUE,520.523999999976,60fe15aa117abf1e8d1dd988,1440,814,2
SaccadeExp6,17437,Central,126,exp,5,4,close,1000,650,400,B,B,TRUE,552.230000011856,60fe15aa117abf1e8d1dd988,1440,814,2
SaccadeExp6,17437,Central,127,exp,5,4,close,1400,450,200,B,B,TRUE,670.70600001188,60fe15aa117abf1e8d1dd988,1440,814,2
SaccadeExp6,17437,Central,128,exp,5,2,close,1400,450,200,R,R,TRUE,1353.21999999997,60fe15aa117abf1e8d1dd988,1440,814,2
SaccadeExp6,17437,Central,129,exp,5,2,close,1400,650,400,R,R,TRUE,1423.88500001188,60fe15aa117abf1e8d1dd988,1440,814,2
SaccadeExp6,17437,Central,130,exp,5,1,close,200,450,200,R,R,TRUE,619.382999999914,60fe15aa117abf1e8d1dd988,1440,814,2
SaccadeExp6,17437,Central,131,exp,5,4,close,600,300,50,P,P,TRUE,1025.15699999989,60fe15aa117abf1e8d1dd988,1440,814,2
SaccadeExp6,17437,Central,132,exp,5,2,close,200,650,400,R,R,TRUE,694.098000047728,60fe15aa117abf1e8d1dd988,1440,814,2
SaccadeExp6,17437,Central,133,exp,5,4,close,200,450,200,P,P,TRUE,638.732000035699,60fe15aa117abf1e8d1dd988,1440,814,2
SaccadeExp6,17437,Central,134,exp,5,2,close,200,650,400,B,B,TRUE,797.806000047596,60fe15aa117abf1e8d1dd988,1440,814,2
SaccadeExp6,17437,Central,135,exp,5,4,close,1400,650,400,P,B,FALSE,774.48900004779,60fe15aa117abf1e8d1dd988,1440,814,2
SaccadeExp6,17437,Central,136,exp,5,2,close,200,450,200,B,B,TRUE,732.493000023765,60fe15aa117abf1e8d1dd988,1440,814,2
SaccadeExp6,17437,Central,137,exp,5,1,close,1400,450,200,B,B,TRUE,1057.44300003583,60fe15aa117abf1e8d1dd988,1440,814,2
SaccadeExp6,17437,Central,138,exp,5,2,close,1400,450,200,P,P,TRUE,586.781000035815,60fe15aa117abf1e8d1dd988,1440,814,2
SaccadeExp6,17437,Central,139,exp,5,2,close,600,650,400,P,P,TRUE,771.901000035694,60fe15aa117abf1e8d1dd988,1440,814,2
SaccadeExp6,17437,Central,140,exp,5,3,close,1000,650,400,P,P,TRUE,860.611000011908,60fe15aa117abf1e8d1dd988,1440,814,2
SaccadeExp6,17437,Central,141,exp,5,1,close,1000,650,400,B,R,FALSE,953.009000011953,60fe15aa117abf1e8d1dd988,1440,814,2
SaccadeExp6,17437,Central,142,exp,5,2,close,200,450,200,P,P,TRUE,568.253000023775,60fe15aa117abf1e8d1dd988,1440,814,2
SaccadeExp6,17437,Central,143,exp,5,3,close,1000,450,200,P,P,TRUE,522.381000023801,60fe15aa117abf1e8d1dd988,1440,814,2
SaccadeExp6,17437,Central,144,exp,5,1,close,1400,300,50,B,R,FALSE,1003.18300002394,60fe15aa117abf1e8d1dd988,1440,814,2
SaccadeExp6,17437,Central,145,exp,5,2,close,600,450,200,B,B,TRUE,889.101000035647,60fe15aa117abf1e8d1dd988,1440,814,2
SaccadeExp6,17437,Central,146,exp,5,1,close,1800,300,50,B,B,TRUE,804.067000047769,60fe15aa117abf1e8d1dd988,1440,814,2
SaccadeExp6,17437,Central,147,exp,5,2,close,600,300,50,P,P,TRUE,540.980000035837,60fe15aa117abf1e8d1dd988,1440,814,2
SaccadeExp6,17437,Central,148,exp,5,1,close,1000,650,400,R,R,TRUE,951.914000047604,60fe15aa117abf1e8d1dd988,1440,814,2
SaccadeExp6,17437,Central,149,exp,5,3,close,1800,650,400,R,R,TRUE,561.898000000045,60fe15aa117abf1e8d1dd988,1440,814,2
SaccadeExp6,17437,Central,150,exp,5,3,close,200,300,50,B,B,TRUE,392.912000035867,60fe15aa117abf1e8d1dd988,1440,814,2
SaccadeExp6,17437,Central,151,exp,5,1,close,600,650,400,B,P,FALSE,19.1600000476465,60fe15aa117abf1e8d1dd988,1440,814,2
SaccadeExp6,17437,Central,152,exp,5,4,close,1800,300,50,B,P,FALSE,440.492000035709,60fe15aa117abf1e8d1dd988,1440,814,2
SaccadeExp6,17437,Central,153,exp,5,4,close,1800,650,400,R,B,FALSE,769.660000047646,60fe15aa117abf1e8d1dd988,1440,814,2
SaccadeExp6,17437,Central,154,exp,5,1,close,1000,650,400,P,P,TRUE,576.970000047702,60fe15aa117abf1e8d1dd988,1440,814,2
SaccadeExp6,17437,Central,155,exp,5,2,close,600,650,400,B,P,FALSE,692.79000003566,60fe15aa117abf1e8d1dd988,1440,814,2
SaccadeExp6,17437,Central,156,exp,5,1,close,600,450,200,R,R,TRUE,946.240000035847,60fe15aa117abf1e8d1dd988,1440,814,2
SaccadeExp6,17437,Central,157,exp,5,3,close,1000,300,50,R,R,TRUE,482.229000035673,60fe15aa117abf1e8d1dd988,1440,814,2
SaccadeExp6,17437,Central,158,exp,5,3,close,1800,300,50,P,P,TRUE,515.679000047734,60fe15aa117abf1e8d1dd988,1440,814,2
SaccadeExp6,17437,Central,159,exp,5,4,close,1000,450,200,P,R,FALSE,1538.98000004771,60fe15aa117abf1e8d1dd988,1440,814,2
SaccadeExp6,17437,Central,160,exp,5,3,close,600,300,50,P,P,TRUE,610.124000047799,60fe15aa117abf1e8d1dd988,1440,814,2
SaccadeExp6,17437,Central,161,exp,5,1,close,200,300,50,P,P,TRUE,773.782000023872,60fe15aa117abf1e8d1dd988,1440,814,2
SaccadeExp6,17437,Central,162,exp,5,4,close,1000,450,200,R,R,TRUE,779.58400002378,60fe15aa117abf1e8d1dd988,1440,814,2
SaccadeExp6,17437,Central,163,exp,5,2,close,200,300,50,R,B,FALSE,970.986000000034,60fe15aa117abf1e8d1dd988,1440,814,2
SaccadeExp6,17437,Central,164,exp,5,3,close,1800,450,200,B,B,TRUE,506.928000023821,60fe15aa117abf1e8d1dd988,1440,814,2
SaccadeExp6,17437,Central,165,exp,5,3,close,1400,300,50,R,R,TRUE,811.296000000089,60fe15aa117abf1e8d1dd988,1440,814,2
SaccadeExp6,17437,Central,166,exp,5,2,close,1800,450,200,P,R,FALSE,1113.68700001203,60fe15aa117abf1e8d1dd988,1440,814,2
SaccadeExp6,17437,Central,167,exp,5,4,close,1800,450,200,P,P,TRUE,522.635000035865,60fe15aa117abf1e8d1dd988,1440,814,2
SaccadeExp6,17437,Central,168,exp,5,2,close,1400,450,200,B,B,TRUE,772.408000023803,60fe15aa117abf1e8d1dd988,1440,814,2
SaccadeExp6,17437,Central,169,exp,5,1,close,1000,300,50,P,P,TRUE,634.304000047734,60fe15aa117abf1e8d1dd988,1440,814,2
SaccadeExp6,17437,Central,170,exp,5,4,close,1800,450,200,R,B,FALSE,865.666000035824,60fe15aa117abf1e8d1dd988,1440,814,2
SaccadeExp6,17437,Central,171,exp,5,1,close,600,300,50,P,P,TRUE,495.95299999998,60fe15aa117abf1e8d1dd988,1440,814,2
SaccadeExp6,17437,Central,172,exp,5,2,close,1400,300,50,R,R,TRUE,519.121000047773,60fe15aa117abf1e8d1dd988,1440,814,2
SaccadeExp6,17437,Central,173,exp,5,1,close,200,650,400,R,B,FALSE,681.889000047697,60fe15aa117abf1e8d1dd988,1440,814,2
SaccadeExp6,17437,Central,174,exp,5,1,close,1800,300,50,R,R,TRUE,681.075999999885,60fe15aa117abf1e8d1dd988,1440,814,2
SaccadeExp6,17437,Central,175,exp,5,2,close,1800,300,50,B,B,TRUE,779.500000023749,60fe15aa117abf1e8d1dd988,1440,814,2
SaccadeExp6,17437,Central,176,exp,5,2,close,600,450,200,R,R,TRUE,790.85400000005,60fe15aa117abf1e8d1dd988,1440,814,2
SaccadeExp6,17437,Central,177,exp,5,3,close,1400,650,400,R,R,TRUE,672.241000012029,60fe15aa117abf1e8d1dd988,1440,814,2
SaccadeExp6,17437,Central,178,exp,5,1,close,200,650,400,P,P,TRUE,500.115000035847,60fe15aa117abf1e8d1dd988,1440,814,2
SaccadeExp6,17437,Central,179,exp,5,4,close,200,450,200,R,R,TRUE,459.341000047745,60fe15aa117abf1e8d1dd988,1440,814,2
SaccadeExp6,17437,Central,180,exp,5,1,close,1800,650,400,B,R,FALSE,665.871000035666,60fe15aa117abf1e8d1dd988,1440,814,2
SaccadeExp6,17436,Central,1,exp,5,4,close,1400,450,200,B,R,FALSE,8981.2579999881,60907d2c5f61cc203cab58e4,1280,800,2
SaccadeExp6,17436,Central,2,exp,5,2,close,1400,650,400,P,P,TRUE,2275.47799998807,60907d2c5f61cc203cab58e4,1280,800,2
SaccadeExp6,17436,Central,3,exp,5,4,close,1400,650,400,R,R,TRUE,2017.25800000597,60907d2c5f61cc203cab58e4,1280,800,2
SaccadeExp6,17436,Central,4,exp,5,2,close,600,300,50,P,R,FALSE,3228.8009999881,60907d2c5f61cc203cab58e4,1280,800,2
SaccadeExp6,17436,Central,5,exp,5,3,close,1800,650,400,B,P,FALSE,1148.46099998808,60907d2c5f61cc203cab58e4,1280,800,2
SaccadeExp6,17436,Central,6,exp,5,3,close,1800,450,200,R,P,FALSE,51830.9049999821,60907d2c5f61cc203cab58e4,1280,800,2
SaccadeExp6,17436,Central,7,exp,5,4,close,1000,650,400,R,R,TRUE,41398.2880000059,60907d2c5f61cc203cab58e4,1280,800,2
SaccadeExp6,17436,Central,8,exp,5,3,close,1800,300,50,B,R,FALSE,2627.38400000002,60907d2c5f61cc203cab58e4,1280,800,2
SaccadeExp6,17436,Central,9,exp,5,4,close,1400,650,400,B,P,FALSE,1201.73599999404,60907d2c5f61cc203cab58e4,1280,800,2
SaccadeExp6,17436,Central,10,exp,5,1,close,1000,450,200,B,B,TRUE,4104.09000000003,60907d2c5f61cc203cab58e4,1280,800,2
SaccadeExp6,17436,Central,11,exp,5,3,close,1000,450,200,P,R,FALSE,1204.46799999999,60907d2c5f61cc203cab58e4,1280,800,2
SaccadeExp6,17436,Central,12,exp,5,3,close,1000,300,50,B,P,FALSE,6962.74899998808,60907d2c5f61cc203cab58e4,1280,800,2
SaccadeExp6,17436,Central,13,exp,5,2,close,200,450,200,R,R,TRUE,29686.309,60907d2c5f61cc203cab58e4,1280,800,2
SaccadeExp6,17436,Central,14,exp,5,4,close,1000,300,50,P,P,TRUE,1464.19699998805,60907d2c5f61cc203cab58e4,1280,800,2
SaccadeExp6,17436,Central,15,exp,5,3,close,1400,300,50,P,P,TRUE,2479.5569999821,60907d2c5f61cc203cab58e4,1280,800,2
SaccadeExp6,17436,Central,16,exp,5,1,close,1800,650,400,R,B,FALSE,263.612000006018,60907d2c5f61cc203cab58e4,1280,800,2
SaccadeExp6,17436,Central,17,exp,5,3,close,1800,300,50,R,R,TRUE,592.050000005984,60907d2c5f61cc203cab58e4,1280,800,2
SaccadeExp6,17436,Central,18,exp,5,1,close,200,450,200,P,B,FALSE,830.994000006001,60907d2c5f61cc203cab58e4,1280,800,2
SaccadeExp6,17436,Central,19,exp,5,1,close,1000,650,400,P,B,FALSE,7813.64899999404,60907d2c5f61cc203cab58e4,1280,800,2
SaccadeExp6,17436,Central,20,exp,5,3,close,1400,300,50,R,R,TRUE,26964.6049999881,60907d2c5f61cc203cab58e4,1280,800,2
SaccadeExp6,17436,Central,21,exp,5,3,close,600,650,400,R,P,FALSE,3428.4319999821,60907d2c5f61cc203cab58e4,1280,800,2
SaccadeExp6,17436,Central,22,exp,5,2,close,1400,450,200,B,P,FALSE,4107.09399998211,60907d2c5f61cc203cab58e4,1280,800,2
SaccadeExp6,17436,Central,23,exp,5,3,close,1800,650,400,R,R,TRUE,2851.52899999404,60907d2c5f61cc203cab58e4,1280,800,2
SaccadeExp6,17436,Central,24,exp,5,1,close,1400,300,50,B,B,TRUE,236.346999994013,60907d2c5f61cc203cab58e4,1280,800,2
SaccadeExp6,17436,Central,25,exp,5,4,close,200,450,200,B,P,FALSE,1147.83999999403,60907d2c5f61cc203cab58e4,1280,800,2
SaccadeExp6,17436,Central,26,exp,5,1,close,1400,300,50,P,B,FALSE,1581.6059999821,60907d2c5f61cc203cab58e4,1280,800,2
SaccadeExp6,17436,Central,27,exp,5,3,close,1000,450,200,R,R,TRUE,611.083999982104,60907d2c5f61cc203cab58e4,1280,800,2
SaccadeExp6,17436,Central,28,exp,5,2,close,1800,300,50,P,P,TRUE,5275.711999994,60907d2c5f61cc203cab58e4,1280,800,2
SaccadeExp6,17436,Central,29,exp,5,3,close,200,450,200,B,B,TRUE,5077.86199998809,60907d2c5f61cc203cab58e4,1280,800,2
SaccadeExp6,17436,Central,30,exp,5,2,close,600,450,200,P,R,FALSE,229.141999982065,60907d2c5f61cc203cab58e4,1280,800,2
SaccadeExp6,17436,Central,31,exp,5,4,close,1000,450,200,R,R,TRUE,353.113999988069,60907d2c5f61cc203cab58e4,1280,800,2
SaccadeExp6,17436,Central,32,exp,5,1,close,200,300,50,B,B,TRUE,1639.55999998807,60907d2c5f61cc203cab58e4,1280,800,2
SaccadeExp6,17436,Central,33,exp,5,2,close,1800,450,200,P,R,FALSE,252.559000000008,60907d2c5f61cc203cab58e4,1280,800,2
SaccadeExp6,17436,Central,34,exp,5,4,close,1400,450,200,P,P,TRUE,1192.98099998804,60907d2c5f61cc203cab58e4,1280,800,2
SaccadeExp6,17436,Central,35,exp,5,2,close,1000,300,50,P,R,FALSE,517.374999988126,60907d2c5f61cc203cab58e4,1280,800,2
SaccadeExp6,17436,Central,36,exp,5,1,close,1800,650,400,B,B,TRUE,5337.28399998811,60907d2c5f61cc203cab58e4,1280,800,2
SaccadeExp6,17436,Central,37,exp,5,1,close,200,650,400,R,B,FALSE,295.949999994016,60907d2c5f61cc203cab58e4,1280,800,2
SaccadeExp6,17436,Central,38,exp,5,4,close,600,650,400,P,R,FALSE,583.896999988123,60907d2c5f61cc203cab58e4,1280,800,2
SaccadeExp6,17436,Central,39,exp,5,2,close,1400,650,400,B,R,FALSE,4393.42500000598,60907d2c5f61cc203cab58e4,1280,800,2
SaccadeExp6,17436,Central,40,exp,5,2,close,600,300,50,R,B,FALSE,1709.45400000596,60907d2c5f61cc203cab58e4,1280,800,2
SaccadeExp6,17436,Central,41,exp,5,2,close,1800,300,50,R,P,FALSE,227.153999982169,60907d2c5f61cc203cab58e4,1280,800,2
SaccadeExp6,17436,Central,42,exp,5,3,close,600,450,200,R,B,FALSE,2464.85000000591,60907d2c5f61cc203cab58e4,1280,800,2
SaccadeExp6,17436,Central,43,exp,5,4,close,200,450,200,P,R,FALSE,1411.96599998209,60907d2c5f61cc203cab58e4,1280,800,2
SaccadeExp6,17436,Central,44,exp,5,4,close,200,450,200,R,P,FALSE,857.984000005992,60907d2c5f61cc203cab58e4,1280,800,2
SaccadeExp6,17436,Central,45,exp,5,4,close,1800,650,400,P,R,FALSE,325.251999982167,60907d2c5f61cc203cab58e4,1280,800,2
SaccadeExp6,17436,Central,46,exp,5,3,close,1400,650,400,R,P,FALSE,663.491999982158,60907d2c5f61cc203cab58e4,1280,800,2
SaccadeExp6,17436,Central,47,exp,5,3,close,200,300,50,R,R,TRUE,3313.93199999409,60907d2c5f61cc203cab58e4,1280,800,2
SaccadeExp6,17436,Central,48,exp,5,2,close,200,300,50,P,R,FALSE,97198.5059999881,60907d2c5f61cc203cab58e4,1280,800,2
SaccadeExp6,17436,Central,49,exp,5,1,close,600,650,400,P,B,FALSE,7005.99300000595,60907d2c5f61cc203cab58e4,1280,800,2
SaccadeExp6,17436,Central,50,exp,5,1,close,600,450,200,R,B,FALSE,377.523000005982,60907d2c5f61cc203cab58e4,1280,800,2
SaccadeExp6,17436,Central,51,exp,5,1,close,1800,450,200,B,B,TRUE,1377.85100000596,60907d2c5f61cc203cab58e4,1280,800,2
SaccadeExp6,17436,Central,52,exp,5,4,close,1000,650,400,B,P,FALSE,744.777000000002,60907d2c5f61cc203cab58e4,1280,800,2
SaccadeExp6,17436,Central,53,exp,5,2,close,600,450,200,B,R,FALSE,532.161999994074,60907d2c5f61cc203cab58e4,1280,800,2
SaccadeExp6,17436,Central,54,exp,5,3,close,1000,450,200,B,P,FALSE,388.675999999978,60907d2c5f61cc203cab58e4,1280,800,2
SaccadeExp6,17436,Central,55,exp,5,1,close,1000,650,400,B,B,TRUE,843.79399998812,60907d2c5f61cc203cab58e4,1280,800,2
SaccadeExp6,17436,Central,56,exp,5,1,close,1800,450,200,P,B,FALSE,722.446999982116,60907d2c5f61cc203cab58e4,1280,800,2
SaccadeExp6,17436,Central,57,exp,5,1,close,200,450,200,R,B,FALSE,755.224999988102,60907d2c5f61cc203cab58e4,1280,800,2
SaccadeExp6,17436,Central,58,exp,5,1,close,1400,650,400,P,B,FALSE,648.939000000013,60907d2c5f61cc203cab58e4,1280,800,2
SaccadeExp6,17436,Central,59,exp,5,2,close,1800,300,50,B,P,FALSE,989.079999994021,60907d2c5f61cc203cab58e4,1280,800,2
SaccadeExp6,17436,Central,60,exp,5,3,close,200,650,400,P,R,FALSE,587.085999994073,60907d2c5f61cc203cab58e4,1280,800,2
SaccadeExp6,17436,Central,61,exp,5,1,close,1000,300,50,P,B,FALSE,742.969999999972,60907d2c5f61cc203cab58e4,1280,800,2
SaccadeExp6,17436,Central,62,exp,5,2,close,200,300,50,B,R,FALSE,747.891999999993,60907d2c5f61cc203cab58e4,1280,800,2
SaccadeExp6,17436,Central,63,exp,5,1,close,1400,450,200,B,B,TRUE,894.952000005986,60907d2c5f61cc203cab58e4,1280,800,2
SaccadeExp6,17436,Central,64,exp,5,4,close,600,450,200,R,P,FALSE,3929.91400000593,60907d2c5f61cc203cab58e4,1280,800,2
SaccadeExp6,17436,Central,65,exp,5,2,close,600,300,50,B,R,FALSE,8842.71399998805,60907d2c5f61cc203cab58e4,1280,800,2
SaccadeExp6,17436,Central,66,exp,5,2,close,1800,650,400,B,R,FALSE,410.516999999993,60907d2c5f61cc203cab58e4,1280,800,2
SaccadeExp6,17436,Central,67,exp,5,1,close,1000,650,400,R,B,FALSE,1183.3609999941,60907d2c5f61cc203cab58e4,1280,800,2
SaccadeExp6,17436,Central,68,exp,5,3,close,1800,450,200,B,P,FALSE,253.877999994089,60907d2c5f61cc203cab58e4,1280,800,2
SaccadeExp6,17436,Central,69,exp,5,1,close,1800,450,200,R,B,FALSE,729.1979999881,60907d2c5f61cc203cab58e4,1280,800,2
SaccadeExp6,17436,Central,70,exp,5,2,close,1000,650,400,R,R,TRUE,529.735999982106,60907d2c5f61cc203cab58e4,1280,800,2
SaccadeExp6,17436,Central,71,exp,5,4,close,600,650,400,R,R,TRUE,2150.19300000591,60907d2c5f61cc203cab58e4,1280,800,2
SaccadeExp6,17436,Central,72,exp,5,1,close,600,650,400,R,B,FALSE,1562.21699999401,60907d2c5f61cc203cab58e4,1280,800,2
SaccadeExp6,17436,Central,73,exp,5,4,close,200,300,50,R,P,FALSE,463.560999988113,60907d2c5f61cc203cab58e4,1280,800,2
SaccadeExp6,17436,Central,74,exp,5,2,close,600,650,400,R,R,TRUE,10698.485999988,60907d2c5f61cc203cab58e4,1280,800,2
SaccadeExp6,17436,Central,75,exp,5,4,close,200,650,400,P,P,TRUE,338.438999988022,60907d2c5f61cc203cab58e4,1280,800,2
SaccadeExp6,17436,Central,76,exp,5,3,close,1000,650,400,P,R,FALSE,467.052999988082,60907d2c5f61cc203cab58e4,1280,800,2
SaccadeExp6,17436,Central,77,exp,5,3,close,600,650,400,P,R,FALSE,597.776999988127,60907d2c5f61cc203cab58e4,1280,800,2
SaccadeExp6,17436,Central,78,exp,5,3,close,1400,450,200,B,R,FALSE,8323.55899998208,60907d2c5f61cc203cab58e4,1280,800,2
SaccadeExp6,17436,Central,79,exp,5,4,close,600,450,200,B,R,FALSE,304.778999988106,60907d2c5f61cc203cab58e4,1280,800,2
SaccadeExp6,17436,Central,80,exp,5,4,close,1800,450,200,B,R,FALSE,9921.57699998212,60907d2c5f61cc203cab58e4,1280,800,2
SaccadeExp6,17436,Central,81,exp,5,4,close,1800,650,400,R,R,TRUE,633.247999994084,60907d2c5f61cc203cab58e4,1280,800,2
SaccadeExp6,17436,Central,82,exp,5,2,close,1000,650,400,P,R,FALSE,10897.9299999821,60907d2c5f61cc203cab58e4,1280,800,2
SaccadeExp6,17436,Central,83,exp,5,4,close,1800,300,50,R,P,FALSE,2016.23899998213,60907d2c5f61cc203cab58e4,1280,800,2
SaccadeExp6,17436,Central,84,exp,5,1,close,1000,300,50,R,B,FALSE,21007.6589999881,60907d2c5f61cc203cab58e4,1280,800,2
SaccadeExp6,17436,Central,85,exp,5,4,close,1800,650,400,B,R,FALSE,688.458000005921,60907d2c5f61cc203cab58e4,1280,800,2
SaccadeExp6,17436,Central,86,exp,5,4,close,1400,450,200,R,R,TRUE,11518.4300000001,60907d2c5f61cc203cab58e4,1280,800,2
SaccadeExp6,17436,Central,87,exp,5,1,close,200,650,400,P,B,FALSE,18295.3549999881,60907d2c5f61cc203cab58e4,1280,800,2
SaccadeExp6,17436,Central,88,exp,5,1,close,1800,300,50,R,B,FALSE,7794.23999999999,60907d2c5f61cc203cab58e4,1280,800,2
SaccadeExp6,17436,Central,89,exp,5,3,close,1800,450,200,P,P,TRUE,1769.1009999821,60907d2c5f61cc203cab58e4,1280,800,2
SaccadeExp6,17436,Central,90,exp,5,2,close,1400,450,200,P,P,TRUE,223.662999982014,60907d2c5f61cc203cab58e4,1280,800,2
SaccadeExp6,17436,Central,91,exp,5,2,close,600,450,200,R,R,TRUE,2030.71800000011,60907d2c5f61cc203cab58e4,1280,800,2
SaccadeExp6,17436,Central,92,exp,5,2,close,200,450,200,B,R,FALSE,3208.44999999413,60907d2c5f61cc203cab58e4,1280,800,2
SaccadeExp6,17436,Central,93,exp,5,2,close,1400,450,200,R,R,TRUE,328.348999994108,60907d2c5f61cc203cab58e4,1280,800,2
SaccadeExp6,17436,Central,94,exp,5,2,close,600,650,400,B,R,FALSE,35474.6389999941,60907d2c5f61cc203cab58e4,1280,800,2
SaccadeExp6,17436,Central,95,exp,5,2,close,1400,300,50,B,R,FALSE,40035.6980000001,60907d2c5f61cc203cab58e4,1280,800,2
SaccadeExp6,17436,Central,96,exp,5,3,close,1800,650,400,P,P,TRUE,20353.539999994,60907d2c5f61cc203cab58e4,1280,800,2
SaccadeExp6,17436,Central,97,exp,5,2,close,1800,650,400,R,R,TRUE,8759.02299998212,60907d2c5f61cc203cab58e4,1280,800,2
SaccadeExp6,17436,Central,98,exp,5,2,close,1000,300,50,B,R,FALSE,3906.51699999394,60907d2c5f61cc203cab58e4,1280,800,2
SaccadeExp6,17436,Central,99,exp,5,1,close,1000,300,50,B,P,FALSE,2430.54899999406,60907d2c5f61cc203cab58e4,1280,800,2
SaccadeExp6,17436,Central,100,exp,5,2,close,200,650,400,P,R,FALSE,6669.73599998816,60907d2c5f61cc203cab58e4,1280,800,2
SaccadeExp6,17436,Central,101,exp,5,2,close,1800,450,200,B,R,FALSE,26437.045999988,60907d2c5f61cc203cab58e4,1280,800,2
SaccadeExp6,17436,Central,102,exp,5,2,close,1400,650,400,R,R,TRUE,6407.500999982,60907d2c5f61cc203cab58e4,1280,800,2
SaccadeExp6,17436,Central,103,exp,5,1,close,200,650,400,B,B,TRUE,6173.58099998813,60907d2c5f61cc203cab58e4,1280,800,2
SaccadeExp6,17436,Central,104,exp,5,3,close,200,450,200,P,P,TRUE,521.486999982037,60907d2c5f61cc203cab58e4,1280,800,2
SaccadeExp6,17436,Central,105,exp,5,2,close,200,450,200,P,R,FALSE,179.895999982022,60907d2c5f61cc203cab58e4,1280,800,2
SaccadeExp6,17436,Central,106,exp,5,4,close,1000,650,400,P,P,TRUE,265.801999988034,60907d2c5f61cc203cab58e4,1280,800,2
SaccadeExp6,17436,Central,107,exp,5,4,close,1800,300,50,P,R,FALSE,395.013999982039,60907d2c5f61cc203cab58e4,1280,800,2
SaccadeExp6,17436,Central,108,exp,5,1,close,600,300,50,B,B,TRUE,3646.93599998206,60907d2c5f61cc203cab58e4,1280,800,2
SaccadeExp6,17436,Central,109,exp,5,3,close,600,450,200,P,R,FALSE,15192.1950000059,60907d2c5f61cc203cab58e4,1280,800,2
SaccadeExp6,17436,Central,110,exp,5,2,close,1400,300,50,R,R,TRUE,5546.22500000591,60907d2c5f61cc203cab58e4,1280,800,2
SaccadeExp6,17436,Central,111,exp,5,2,close,1400,300,50,P,P,TRUE,3326.62800000003,60907d2c5f61cc203cab58e4,1280,800,2
SaccadeExp6,17436,Central,112,exp,5,2,close,1000,450,200,B,P,FALSE,1350.58400000585,60907d2c5f61cc203cab58e4,1280,800,2
SaccadeExp6,17436,Central,113,exp,5,4,close,600,300,50,B,R,FALSE,3772.51399999997,60907d2c5f61cc203cab58e4,1280,800,2
SaccadeExp6,17436,Central,114,exp,5,1,close,600,300,50,P,R,FALSE,1424.94400000595,60907d2c5f61cc203cab58e4,1280,800,2
SaccadeExp6,17436,Central,115,exp,5,3,close,600,450,200,B,B,TRUE,965.338000006042,60907d2c5f61cc203cab58e4,1280,800,2
SaccadeExp6,17436,Central,116,exp,5,1,close,600,300,50,R,R,TRUE,225.322000005981,60907d2c5f61cc203cab58e4,1280,800,2
SaccadeExp6,17436,Central,117,exp,5,1,close,1800,300,50,P,B,FALSE,934.855000006035,60907d2c5f61cc203cab58e4,1280,800,2
SaccadeExp6,17436,Central,118,exp,5,4,close,1800,450,200,R,R,TRUE,1064.74099998805,60907d2c5f61cc203cab58e4,1280,800,2
SaccadeExp6,17436,Central,119,exp,5,4,close,600,300,50,P,R,FALSE,337.254999994067,60907d2c5f61cc203cab58e4,1280,800,2
SaccadeExp6,17436,Central,120,exp,5,1,close,200,300,50,P,B,FALSE,959.800999988103,60907d2c5f61cc203cab58e4,1280,800,2
SaccadeExp6,17436,Central,121,exp,5,1,close,1800,300,50,B,B,TRUE,595.262000005925,60907d2c5f61cc203cab58e4,1280,800,2
SaccadeExp6,17436,Central,122,exp,5,4,close,200,300,50,P,R,FALSE,1190.92400000594,60907d2c5f61cc203cab58e4,1280,800,2
SaccadeExp6,17436,Central,123,exp,5,4,close,1400,300,50,R,R,TRUE,378.468000005931,60907d2c5f61cc203cab58e4,1280,800,2
SaccadeExp6,17436,Central,124,exp,5,3,close,600,300,50,B,P,FALSE,815.468000005931,60907d2c5f61cc203cab58e4,1280,800,2
SaccadeExp6,17436,Central,125,exp,5,2,close,1000,650,400,B,P,FALSE,413.210000006016,60907d2c5f61cc203cab58e4,1280,800,2
SaccadeExp6,17436,Central,126,exp,5,3,close,200,650,400,R,P,FALSE,522.806000005919,60907d2c5f61cc203cab58e4,1280,800,2
SaccadeExp6,17436,Central,127,exp,5,4,close,600,450,200,P,R,FALSE,203.596000005957,60907d2c5f61cc203cab58e4,1280,800,2
SaccadeExp6,17436,Central,128,exp,5,1,close,1400,450,200,P,B,FALSE,668.422000006074,60907d2c5f61cc203cab58e4,1280,800,2
SaccadeExp6,17436,Central,129,exp,5,3,close,1400,650,400,B,P,FALSE,238.806000000099,60907d2c5f61cc203cab58e4,1280,800,2
SaccadeExp6,17436,Central,130,exp,5,1,close,1400,450,200,R,B,FALSE,1865.61000000592,60907d2c5f61cc203cab58e4,1280,800,2
SaccadeExp6,17436,Central,131,exp,5,2,close,1800,450,200,R,P,FALSE,1834.57799998811,60907d2c5f61cc203cab58e4,1280,800,2
SaccadeExp6,17436,Central,132,exp,5,4,close,600,650,400,B,R,FALSE,5289.30799998203,60907d2c5f61cc203cab58e4,1280,800,2
SaccadeExp6,17436,Central,133,exp,5,1,close,1000,450,200,P,B,FALSE,1570.03399998811,60907d2c5f61cc203cab58e4,1280,800,2
SaccadeExp6,17436,Central,134,exp,5,1,close,1400,650,400,B,B,TRUE,5015.12200000603,60907d2c5f61cc203cab58e4,1280,800,2
SaccadeExp6,17436,Central,135,exp,5,3,close,200,300,50,B,R,FALSE,2672.85300000594,60907d2c5f61cc203cab58e4,1280,800,2
SaccadeExp6,17436,Central,136,exp,5,3,close,200,450,200,R,P,FALSE,139.547000006074,60907d2c5f61cc203cab58e4,1280,800,2
SaccadeExp6,17436,Central,137,exp,5,1,close,1400,300,50,R,B,FALSE,546.227000006009,60907d2c5f61cc203cab58e4,1280,800,2
SaccadeExp6,17436,Central,138,exp,5,4,close,1000,450,200,P,R,FALSE,266.520000006072,60907d2c5f61cc203cab58e4,1280,800,2
SaccadeExp6,17436,Central,139,exp,5,4,close,200,650,400,B,R,FALSE,277.707999994047,60907d2c5f61cc203cab58e4,1280,800,2
SaccadeExp6,17436,Central,140,exp,5,3,close,600,300,50,R,P,FALSE,943.247999999905,60907d2c5f61cc203cab58e4,1280,800,2
SaccadeExp6,17436,Central,141,exp,5,3,close,1400,450,200,R,R,TRUE,965.851999982027,60907d2c5f61cc203cab58e4,1280,800,2
SaccadeExp6,17436,Central,142,exp,5,2,close,200,650,400,R,R,TRUE,429.205999982078,60907d2c5f61cc203cab58e4,1280,800,2
SaccadeExp6,17436,Central,143,exp,5,3,close,1400,650,400,P,P,TRUE,313.499999988126,60907d2c5f61cc203cab58e4,1280,800,2
SaccadeExp6,17436,Central,144,exp,5,2,close,1000,300,50,R,R,TRUE,225.041999982204,60907d2c5f61cc203cab58e4,1280,800,2
SaccadeExp6,17436,Central,145,exp,5,1,close,1400,650,400,R,R,TRUE,6774.43499998818,60907d2c5f61cc203cab58e4,1280,800,2
SaccadeExp6,17436,Central,146,exp,5,4,close,1400,300,50,P,R,FALSE,468.202999993926,60907d2c5f61cc203cab58e4,1280,800,2
SaccadeExp6,17436,Central,147,exp,5,3,close,200,650,400,B,R,FALSE,551.776999993948,60907d2c5f61cc203cab58e4,1280,800,2
SaccadeExp6,17436,Central,148,exp,5,3,close,1400,450,200,P,P,TRUE,4329.24099998223,60907d2c5f61cc203cab58e4,1280,800,2
SaccadeExp6,17436,Central,149,exp,5,4,close,1400,300,50,B,R,FALSE,233.347999988124,60907d2c5f61cc203cab58e4,1280,800,2
SaccadeExp6,17436,Central,150,exp,5,3,close,1000,300,50,P,P,TRUE,548.259999982081,60907d2c5f61cc203cab58e4,1280,800,2
SaccadeExp6,17436,Central,151,exp,5,2,close,200,650,400,B,R,FALSE,564.363999988185,60907d2c5f61cc203cab58e4,1280,800,2
SaccadeExp6,17436,Central,152,exp,5,3,close,1400,300,50,B,R,FALSE,248.891999982065,60907d2c5f61cc203cab58e4,1280,800,2
SaccadeExp6,17436,Central,153,exp,5,1,close,600,450,200,P,R,FALSE,1408.2919999822,60907d2c5f61cc203cab58e4,1280,800,2
SaccadeExp6,17436,Central,154,exp,5,3,close,1800,300,50,P,P,TRUE,953.672000006074,60907d2c5f61cc203cab58e4,1280,800,2
SaccadeExp6,17436,Central,155,exp,5,4,close,600,300,50,R,R,TRUE,1895.00799998804,60907d2c5f61cc203cab58e4,1280,800,2
SaccadeExp6,17436,Central,156,exp,5,1,close,1000,450,200,R,R,TRUE,239.579999994021,60907d2c5f61cc203cab58e4,1280,800,2
SaccadeExp6,17436,Central,157,exp,5,4,close,1800,300,50,B,R,FALSE,2104.3400000059,60907d2c5f61cc203cab58e4,1280,800,2
SaccadeExp6,17436,Central,158,exp,5,1,close,200,300,50,R,R,TRUE,5301.55499999411,60907d2c5f61cc203cab58e4,1280,800,2
SaccadeExp6,17436,Central,159,exp,5,1,close,600,650,400,B,B,TRUE,1857.89299999992,60907d2c5f61cc203cab58e4,1280,800,2
SaccadeExp6,17436,Central,160,exp,5,2,close,1000,450,200,R,R,TRUE,9686.0689999999,60907d2c5f61cc203cab58e4,1280,800,2
SaccadeExp6,17436,Central,161,exp,5,4,close,1800,450,200,P,R,FALSE,7710.94399998221,60907d2c5f61cc203cab58e4,1280,800,2
SaccadeExp6,17436,Central,162,exp,5,2,close,600,650,400,P,R,FALSE,5313.87099998817,60907d2c5f61cc203cab58e4,1280,800,2
SaccadeExp6,17436,Central,163,exp,5,4,close,200,300,50,B,R,FALSE,2192.46499998798,60907d2c5f61cc203cab58e4,1280,800,2
SaccadeExp6,17436,Central,164,exp,5,3,close,1000,300,50,R,R,TRUE,183.129999988014,60907d2c5f61cc203cab58e4,1280,800,2
SaccadeExp6,17436,Central,165,exp,5,3,close,200,300,50,P,P,TRUE,1076.51600000588,60907d2c5f61cc203cab58e4,1280,800,2
SaccadeExp6,17436,Central,166,exp,5,1,close,200,450,200,B,R,FALSE,759.039999988163,60907d2c5f61cc203cab58e4,1280,800,2
SaccadeExp6,17436,Central,167,exp,5,1,close,600,450,200,B,B,TRUE,2375.79399999394,60907d2c5f61cc203cab58e4,1280,800,2
SaccadeExp6,17436,Central,168,exp,5,4,close,1400,650,400,P,R,FALSE,4533.61700000009,60907d2c5f61cc203cab58e4,1280,800,2
SaccadeExp6,17436,Central,169,exp,5,2,close,1800,650,400,P,R,FALSE,6012.29900000594,60907d2c5f61cc203cab58e4,1280,800,2
SaccadeExp6,17436,Central,170,exp,5,3,close,600,300,50,P,P,TRUE,68.3300000000745,60907d2c5f61cc203cab58e4,1280,800,2
SaccadeExp6,17436,Central,171,exp,5,2,close,200,300,50,R,P,FALSE,7340.88599999994,60907d2c5f61cc203cab58e4,1280,800,2
SaccadeExp6,17436,Central,172,exp,5,3,close,600,650,400,B,P,FALSE,3697.07600000594,60907d2c5f61cc203cab58e4,1280,800,2
SaccadeExp6,17436,Central,173,exp,5,3,close,1000,650,400,B,P,FALSE,3348.94199998211,60907d2c5f61cc203cab58e4,1280,800,2
SaccadeExp6,17436,Central,174,exp,5,4,close,1000,300,50,R,R,TRUE,5322.70599999395,60907d2c5f61cc203cab58e4,1280,800,2
SaccadeExp6,17436,Central,175,exp,5,4,close,200,650,400,R,R,TRUE,5472.49799998221,60907d2c5f61cc203cab58e4,1280,800,2
SaccadeExp6,17436,Central,176,exp,5,2,close,1000,450,200,P,R,FALSE,654.42899999395,60907d2c5f61cc203cab58e4,1280,800,2
SaccadeExp6,17436,Central,177,exp,5,4,close,1000,450,200,B,R,FALSE,4808.77700000606,60907d2c5f61cc203cab58e4,1280,800,2
SaccadeExp6,17436,Central,178,exp,5,3,close,1000,650,400,R,P,FALSE,260.497999999905,60907d2c5f61cc203cab58e4,1280,800,2
SaccadeExp6,17436,Central,179,exp,5,1,close,1800,650,400,P,B,FALSE,3453.85600000597,60907d2c5f61cc203cab58e4,1280,800,2
SaccadeExp6,17436,Central,180,exp,5,4,close,1000,300,50,B,R,FALSE,311.247999999905,60907d2c5f61cc203cab58e4,1280,800,2
SaccadeExp6,17436,Colour,1,exp,5,4,close,1000,450,200,B,R,FALSE,4532.10599999991,60907d2c5f61cc203cab58e4,1280,800,2
SaccadeExp6,17436,Colour,2,exp,5,4,close,1000,650,400,P,P,TRUE,225.508000005968,60907d2c5f61cc203cab58e4,1280,800,2
SaccadeExp6,17436,Colour,3,exp,5,1,close,1800,650,400,B,R,FALSE,340.466000006068,60907d2c5f61cc203cab58e4,1280,800,2
SaccadeExp6,17436,Colour,4,exp,5,3,close,200,300,50,B,B,TRUE,3321.73800000595,60907d2c5f61cc203cab58e4,1280,800,2
SaccadeExp6,17436,Colour,5,exp,5,1,close,1800,450,200,B,P,FALSE,1335.45199998817,60907d2c5f61cc203cab58e4,1280,800,2
SaccadeExp6,17436,Colour,6,exp,5,1,close,1000,650,400,R,R,TRUE,3212.32999999402,60907d2c5f61cc203cab58e4,1280,800,2
SaccadeExp6,17436,Colour,7,exp,5,1,close,600,450,200,P,B,FALSE,47576.4469999822,60907d2c5f61cc203cab58e4,1280,800,2
SaccadeExp6,17436,Colour,8,exp,5,4,close,600,650,400,B,R,FALSE,42540.1640000059,60907d2c5f61cc203cab58e4,1280,800,2
SaccadeExp6,17436,Colour,9,exp,5,4,close,1800,650,400,B,R,FALSE,8338.82399999397,60907d2c5f61cc203cab58e4,1280,800,2
SaccadeExp6,17436,Colour,10,exp,5,2,close,1400,300,50,B,R,FALSE,4363.21200000006,60907d2c5f61cc203cab58e4,1280,800,2
SaccadeExp6,17436,Colour,11,exp,5,4,close,1000,300,50,R,P,FALSE,62.7720000059344,60907d2c5f61cc203cab58e4,1280,800,2
SaccadeExp6,17436,Colour,12,exp,5,2,close,1400,300,50,R,B,FALSE,5933.71200000588,60907d2c5f61cc203cab58e4,1280,800,2
SaccadeExp6,17436,Colour,13,exp,5,3,close,1400,300,50,B,B,TRUE,9100.3840000059,60907d2c5f61cc203cab58e4,1280,800,2
SaccadeExp6,17436,Colour,14,exp,5,3,close,600,450,200,P,R,FALSE,2431.07000000589,60907d2c5f61cc203cab58e4,1280,800,2
SaccadeExp6,17436,Colour,15,exp,5,2,close,1000,450,200,B,R,FALSE,11626.1740000059,60907d2c5f61cc203cab58e4,1280,800,2
SaccadeExp6,17436,Colour,16,exp,5,4,close,1400,300,50,R,B,FALSE,530.712999999989,60907d2c5f61cc203cab58e4,1280,800,2
SaccadeExp6,17436,Colour,17,exp,5,2,close,200,650,400,R,B,FALSE,7385.76899998798,60907d2c5f61cc203cab58e4,1280,800,2
SaccadeExp6,17436,Colour,18,exp,5,3,close,1000,650,400,B,B,TRUE,6003.18699999992,60907d2c5f61cc203cab58e4,1280,800,2
SaccadeExp6,17436,Colour,19,exp,5,1,close,1800,650,400,R,R,TRUE,2657.92800000007,60907d2c5f61cc203cab58e4,1280,800,2
SaccadeExp6,17436,Colour,20,exp,5,1,close,1800,300,50,B,B,TRUE,2594.08399999398,60907d2c5f61cc203cab58e4,1280,800,2
SaccadeExp6,17436,Colour,21,exp,5,4,close,1000,450,200,R,R,TRUE,6660.51099999412,60907d2c5f61cc203cab58e4,1280,800,2
SaccadeExp6,17436,Colour,22,exp,5,1,close,1400,650,400,P,B,FALSE,120.649000006029,60907d2c5f61cc203cab58e4,1280,800,2
SaccadeExp6,17436,Colour,23,exp,5,2,close,600,300,50,R,B,FALSE,4929.02900000592,60907d2c5f61cc203cab58e4,1280,800,2
SaccadeExp6,17436,Colour,24,exp,5,3,close,1000,450,200,B,R,FALSE,363.674000005936,60907d2c5f61cc203cab58e4,1280,800,2
SaccadeExp6,17436,Colour,25,exp,5,3,close,1800,650,400,R,P,FALSE,145.914000005927,60907d2c5f61cc203cab58e4,1280,800,2
SaccadeExp6,17436,Colour,26,exp,5,1,close,200,450,200,P,B,FALSE,4577.13400000008,60907d2c5f61cc203cab58e4,1280,800,2
SaccadeExp6,17436,Colour,27,exp,5,4,close,600,300,50,R,R,TRUE,1673.20099999988,60907d2c5f61cc203cab58e4,1280,800,2
SaccadeExp6,17436,Colour,28,exp,5,2,close,1800,650,400,B,P,FALSE,506.095000006026,60907d2c5f61cc203cab58e4,1280,800,2
SaccadeExp6,17436,Colour,29,exp,5,2,close,1400,650,400,R,R,TRUE,4490.33600000618,60907d2c5f61cc203cab58e4,1280,800,2
SaccadeExp6,17436,Colour,30,exp,5,4,close,200,450,200,P,R,FALSE,10817.542000006,60907d2c5f61cc203cab58e4,1280,800,2
SaccadeExp6,17436,Colour,31,exp,5,3,close,1400,650,400,R,R,TRUE,2176.27800000599,60907d2c5f61cc203cab58e4,1280,800,2
SaccadeExp6,17436,Colour,32,exp,5,4,close,200,300,50,B,R,FALSE,5197.25800000597,60907d2c5f61cc203cab58e4,1280,800,2
SaccadeExp6,17436,Colour,33,exp,5,2,close,1800,450,200,R,P,FALSE,5619.41399999987,60907d2c5f61cc203cab58e4,1280,800,2
SaccadeExp6,17436,Colour,34,exp,5,4,close,1400,300,50,B,P,FALSE,1758.53500000015,60907d2c5f61cc203cab58e4,1280,800,2
SaccadeExp6,17436,Colour,35,exp,5,2,close,1000,450,200,P,R,FALSE,20213.173000006,60907d2c5f61cc203cab58e4,1280,800,2
SaccadeExp6,17436,Colour,36,exp,5,4,close,200,650,400,P,R,FALSE,13625.2050000001,60907d2c5f61cc203cab58e4,1280,800,2
SaccadeExp6,17436,Colour,37,exp,5,2,close,1000,650,400,B,P,FALSE,1575.66900000582,60907d2c5f61cc203cab58e4,1280,800,2
SaccadeExp6,17436,Colour,38,exp,5,3,close,200,450,200,P,R,FALSE,4166.17300000601,60907d2c5f61cc203cab58e4,1280,800,2
SaccadeExp6,17436,Colour,39,exp,5,2,close,1800,450,200,B,P,FALSE,874.220000005793,60907d2c5f61cc203cab58e4,1280,800,2
SaccadeExp6,17436,Colour,40,exp,5,4,close,600,450,200,R,P,FALSE,2730.83400000585,60907d2c5f61cc203cab58e4,1280,800,2
SaccadeExp6,17436,Colour,41,exp,5,1,close,600,650,400,B,R,FALSE,3751.5230000061,60907d2c5f61cc203cab58e4,1280,800,2
SaccadeExp6,17436,Colour,42,exp,5,3,close,1400,300,50,P,P,TRUE,3010.69700000016,60907d2c5f61cc203cab58e4,1280,800,2
SaccadeExp6,17436,Colour,43,exp,5,2,close,1400,450,200,P,P,TRUE,4215.88100000005,60907d2c5f61cc203cab58e4,1280,800,2
SaccadeExp6,17436,Colour,44,exp,5,1,close,1000,300,50,P,P,TRUE,2345.60699999984,60907d2c5f61cc203cab58e4,1280,800,2
SaccadeExp6,17436,Colour,45,exp,5,4,close,1800,300,50,P,R,FALSE,673.433999999892,60907d2c5f61cc203cab58e4,1280,800,2
SaccadeExp6,17436,Colour,46,exp,5,3,close,200,450,200,B,B,TRUE,25569.0639999942,60907d2c5f61cc203cab58e4,1280,800,2
SaccadeExp6,17436,Colour,47,exp,5,4,close,1800,650,400,P,R,FALSE,9380.19400000619,60907d2c5f61cc203cab58e4,1280,800,2
SaccadeExp6,17436,Colour,48,exp,5,2,close,600,650,400,P,R,FALSE,11747.6689999942,60907d2c5f61cc203cab58e4,1280,800,2
SaccadeExp6,17436,Colour,49,exp,5,3,close,1000,650,400,P,B,FALSE,5786.16200000001,60907d2c5f61cc203cab58e4,1280,800,2
SaccadeExp6,17436,Colour,50,exp,5,3,close,1800,650,400,B,P,FALSE,24820.8400000059,60907d2c5f61cc203cab58e4,1280,800,2
SaccadeExp6,17436,Colour,51,exp,5,2,close,1800,300,50,B,B,TRUE,17737.395,60907d2c5f61cc203cab58e4,1280,800,2
SaccadeExp6,17436,Colour,52,exp,5,3,close,1000,300,50,P,B,FALSE,18080.542000006,60907d2c5f61cc203cab58e4,1280,800,2
SaccadeExp6,17436,Colour,53,exp,5,1,close,200,450,200,B,P,FALSE,12716.3100000001,60907d2c5f61cc203cab58e4,1280,800,2
SaccadeExp6,17436,Colour,54,exp,5,4,close,1800,650,400,R,R,TRUE,242.341000000015,60907d2c5f61cc203cab58e4,1280,800,2
SaccadeExp6,17436,Colour,55,exp,5,3,close,200,650,400,R,R,TRUE,8262.10299999407,60907d2c5f61cc203cab58e4,1280,800,2
SaccadeExp6,17436,Colour,56,exp,5,1,close,1800,450,200,R,P,FALSE,1820.64999999991,60907d2c5f61cc203cab58e4,1280,800,2
SaccadeExp6,17436,Colour,57,exp,5,3,close,1800,450,200,R,B,FALSE,29256.9140000059,60907d2c5f61cc203cab58e4,1280,800,2
SaccadeExp6,17436,Colour,58,exp,5,3,close,1400,650,400,B,R,FALSE,5241.04300000612,60907d2c5f61cc203cab58e4,1280,800,2
SaccadeExp6,17436,Colour,59,exp,5,4,close,600,450,200,B,R,FALSE,1573.73600000609,60907d2c5f61cc203cab58e4,1280,800,2
SaccadeExp6,17436,Colour,60,exp,5,1,close,1400,450,200,B,B,TRUE,59.7120000058785,60907d2c5f61cc203cab58e4,1280,800,2
SaccadeExp6,17436,Colour,61,exp,5,1,close,600,300,50,B,P,FALSE,582.114000006113,60907d2c5f61cc203cab58e4,1280,800,2
SaccadeExp6,17436,Colour,62,exp,5,2,close,600,450,200,B,P,FALSE,5027.63400000008,60907d2c5f61cc203cab58e4,1280,800,2
SaccadeExp6,17436,Colour,63,exp,5,3,close,1000,450,200,R,R,TRUE,1516.97100000596,60907d2c5f61cc203cab58e4,1280,800,2
SaccadeExp6,17436,Colour,64,exp,5,1,close,200,650,400,B,R,FALSE,2265.67400000012,60907d2c5f61cc203cab58e4,1280,800,2
SaccadeExp6,17436,Colour,65,exp,5,2,close,1000,300,50,R,R,TRUE,4257.5839999998,60907d2c5f61cc203cab58e4,1280,800,2
SaccadeExp6,17436,Colour,66,exp,5,1,close,200,300,50,B,R,FALSE,16724.7629999998,60907d2c5f61cc203cab58e4,1280,800,2
SaccadeExp6,17436,Colour,67,exp,5,1,close,600,450,200,R,P,FALSE,1490.95400000596,60907d2c5f61cc203cab58e4,1280,800,2
SaccadeExp6,17436,Colour,68,exp,5,2,close,200,300,50,R,P,FALSE,2595.09399999399,60907d2c5f61cc203cab58e4,1280,800,2
SaccadeExp6,17436,Colour,69,exp,5,2,close,1400,300,50,P,R,FALSE,5328.06700000586,60907d2c5f61cc203cab58e4,1280,800,2
SaccadeExp6,17436,Colour,70,exp,5,4,close,600,300,50,P,P,TRUE,2573.48500000592,60907d2c5f61cc203cab58e4,1280,800,2
SaccadeExp6,17436,Colour,71,exp,5,1,close,200,650,400,R,P,FALSE,1419.27900000615,60907d2c5f61cc203cab58e4,1280,800,2
SaccadeExp6,17436,Colour,72,exp,5,3,close,1800,450,200,B,B,TRUE,326.471000005957,60907d2c5f61cc203cab58e4,1280,800,2
SaccadeExp6,17436,Colour,73,exp,5,3,close,1400,450,200,B,B,TRUE,228.348000005819,60907d2c5f61cc203cab58e4,1280,800,2
SaccadeExp6,17436,Colour,74,exp,5,4,close,1400,300,50,P,R,FALSE,405.636000005994,60907d2c5f61cc203cab58e4,1280,800,2
SaccadeExp6,17436,Colour,75,exp,5,4,close,1400,450,200,B,P,FALSE,4770.11800000584,60907d2c5f61cc203cab58e4,1280,800,2
SaccadeExp6,17436,Colour,76,exp,5,2,close,600,450,200,P,P,TRUE,3065.34400000609,60907d2c5f61cc203cab58e4,1280,800,2
SaccadeExp6,17436,Colour,77,exp,5,1,close,1000,650,400,B,R,FALSE,522.074000006076,60907d2c5f61cc203cab58e4,1280,800,2
SaccadeExp6,17436,Colour,78,exp,5,4,close,1000,650,400,B,B,TRUE,346.948000005912,60907d2c5f61cc203cab58e4,1280,800,2
SaccadeExp6,17436,Colour,79,exp,5,1,close,1400,650,400,B,P,FALSE,1008.01600000588,60907d2c5f61cc203cab58e4,1280,800,2
SaccadeExp6,17436,Colour,80,exp,5,2,close,200,300,50,B,R,FALSE,3537.48000000603,60907d2c5f61cc203cab58e4,1280,800,2
SaccadeExp6,17436,Colour,81,exp,5,2,close,1800,300,50,P,P,TRUE,1725.79900000617,60907d2c5f61cc203cab58e4,1280,800,2
SaccadeExp6,17436,Colour,82,exp,5,3,close,600,650,400,P,P,TRUE,2934.1729999939,60907d2c5f61cc203cab58e4,1280,800,2
SaccadeExp6,17436,Colour,83,exp,5,1,close,1000,300,50,B,P,FALSE,4116.37000000617,60907d2c5f61cc203cab58e4,1280,800,2
SaccadeExp6,17436,Colour,84,exp,5,2,close,600,450,200,R,P,FALSE,14240.98,60907d2c5f61cc203cab58e4,1280,800,2
SaccadeExp6,17436,Colour,85,exp,5,3,close,1800,300,50,P,R,FALSE,2730.96400000574,60907d2c5f61cc203cab58e4,1280,800,2
SaccadeExp6,17436,Colour,86,exp,5,1,close,1800,300,50,P,P,TRUE,567.75,60907d2c5f61cc203cab58e4,1280,800,2
SaccadeExp6,17436,Colour,87,exp,5,1,close,200,450,200,R,P,FALSE,1664.75400000019,60907d2c5f61cc203cab58e4,1280,800,2
SaccadeExp6,17436,Colour,88,exp,5,3,close,1400,300,50,R,B,FALSE,479.304000006057,60907d2c5f61cc203cab58e4,1280,800,2
SaccadeExp6,17436,Colour,89,exp,5,4,close,1800,300,50,R,P,FALSE,463.080000000075,60907d2c5f61cc203cab58e4,1280,800,2
SaccadeExp6,17436,Colour,90,exp,5,3,close,200,300,50,R,R,TRUE,235.333000000101,60907d2c5f61cc203cab58e4,1280,800,2
SaccadeExp6,17436,Colour,91,exp,5,4,close,1800,300,50,B,P,FALSE,191.811000005808,60907d2c5f61cc203cab58e4,1280,800,2
SaccadeExp6,17436,Colour,92,exp,5,1,close,1800,650,400,P,R,FALSE,518.23900000006,60907d2c5f61cc203cab58e4,1280,800,2
SaccadeExp6,17436,Colour,93,exp,5,2,close,600,650,400,R,B,FALSE,246.266999999993,60907d2c5f61cc203cab58e4,1280,800,2
SaccadeExp6,17436,Colour,94,exp,5,4,close,200,450,200,R,B,FALSE,817.243000005838,60907d2c5f61cc203cab58e4,1280,800,2
SaccadeExp6,17436,Colour,95,exp,5,4,close,600,450,200,P,P,TRUE,126.092999999877,60907d2c5f61cc203cab58e4,1280,800,2
SaccadeExp6,17436,Colour,96,exp,5,2,close,600,300,50,B,B,TRUE,147.00300000608,60907d2c5f61cc203cab58e4,1280,800,2
SaccadeExp6,17436,Colour,97,exp,5,2,close,1400,650,400,B,R,FALSE,169.706999993883,60907d2c5f61cc203cab58e4,1280,800,2
SaccadeExp6,17436,Colour,98,exp,5,1,close,200,300,50,P,P,TRUE,510.118999999948,60907d2c5f61cc203cab58e4,1280,800,2
SaccadeExp6,17436,Colour,99,exp,5,3,close,1400,450,200,P,P,TRUE,401.138999999966,60907d2c5f61cc203cab58e4,1280,800,2
SaccadeExp6,17436,Colour,100,exp,5,2,close,1800,650,400,P,R,FALSE,1724.58300000615,60907d2c5f61cc203cab58e4,1280,800,2
SaccadeExp6,17436,Colour,101,exp,5,3,close,1800,650,400,P,P,TRUE,820.359000005759,60907d2c5f61cc203cab58e4,1280,800,2
SaccadeExp6,17436,Colour,102,exp,5,1,close,1800,300,50,R,R,TRUE,822.555000005756,60907d2c5f61cc203cab58e4,1280,800,2
SaccadeExp6,17436,Colour,103,exp,5,3,close,200,300,50,P,B,FALSE,466.129000005778,60907d2c5f61cc203cab58e4,1280,800,2
SaccadeExp6,17436,Colour,104,exp,5,1,close,1800,450,200,P,P,TRUE,343.700000000186,60907d2c5f61cc203cab58e4,1280,800,2
SaccadeExp6,17436,Colour,105,exp,5,3,close,600,650,400,R,R,TRUE,294.567999993917,60907d2c5f61cc203cab58e4,1280,800,2
SaccadeExp6,17436,Colour,106,exp,5,2,close,600,650,400,B,P,FALSE,5719.15800000587,60907d2c5f61cc203cab58e4,1280,800,2
SaccadeExp6,17436,Colour,107,exp,5,2,close,1800,650,400,R,P,FALSE,1291.10699999984,60907d2c5f61cc203cab58e4,1280,800,2
SaccadeExp6,17436,Colour,108,exp,5,2,close,1400,450,200,R,B,FALSE,1068.44100000616,60907d2c5f61cc203cab58e4,1280,800,2
SaccadeExp6,17436,Colour,109,exp,5,4,close,600,650,400,R,R,TRUE,177.606999999844,60907d2c5f61cc203cab58e4,1280,800,2
SaccadeExp6,17436,Colour,110,exp,5,2,close,1400,650,400,P,R,FALSE,479.337000005879,60907d2c5f61cc203cab58e4,1280,800,2
SaccadeExp6,17436,Colour,111,exp,5,1,close,200,300,50,R,P,FALSE,2214.369000006,60907d2c5f61cc203cab58e4,1280,800,2
SaccadeExp6,17436,Colour,112,exp,5,3,close,600,450,200,R,R,TRUE,2559.52400000021,60907d2c5f61cc203cab58e4,1280,800,2
SaccadeExp6,17436,Colour,113,exp,5,1,close,600,300,50,P,B,FALSE,547.37800000608,60907d2c5f61cc203cab58e4,1280,800,2
SaccadeExp6,17436,Colour,114,exp,5,1,close,1400,450,200,P,P,TRUE,3801.31999999424,60907d2c5f61cc203cab58e4,1280,800,2
SaccadeExp6,17436,Colour,115,exp,5,4,close,200,300,50,P,R,FALSE,184.349000005983,60907d2c5f61cc203cab58e4,1280,800,2
SaccadeExp6,17436,Colour,116,exp,5,4,close,600,650,400,P,P,TRUE,6413.18300000578,60907d2c5f61cc203cab58e4,1280,800,2
SaccadeExp6,17436,Colour,117,exp,5,4,close,200,650,400,R,B,FALSE,364.596000005957,60907d2c5f61cc203cab58e4,1280,800,2
SaccadeExp6,17436,Colour,118,exp,5,3,close,1800,450,200,P,R,FALSE,43.0240000002086,60907d2c5f61cc203cab58e4,1280,800,2
SaccadeExp6,17436,Colour,119,exp,5,3,close,600,300,50,P,B,FALSE,3627.97800000617,60907d2c5f61cc203cab58e4,1280,800,2
SaccadeExp6,17436,Colour,120,exp,5,2,close,200,650,400,P,P,TRUE,2932.43300000019,60907d2c5f61cc203cab58e4,1280,800,2
SaccadeExp6,17436,Colour,121,exp,5,2,close,1000,450,200,R,R,TRUE,1653.23900000611,60907d2c5f61cc203cab58e4,1280,800,2
SaccadeExp6,17436,Colour,122,exp,5,4,close,1400,450,200,P,P,TRUE,1566.71799999988,60907d2c5f61cc203cab58e4,1280,800,2
SaccadeExp6,17436,Colour,123,exp,5,1,close,1000,450,200,B,P,FALSE,379.521999999881,60907d2c5f61cc203cab58e4,1280,800,2
SaccadeExp6,17436,Colour,124,exp,5,4,close,1400,450,200,R,B,FALSE,2073.25200000592,60907d2c5f61cc203cab58e4,1280,800,2
SaccadeExp6,17436,Colour,125,exp,5,3,close,200,650,400,P,P,TRUE,2361.20900000585,60907d2c5f61cc203cab58e4,1280,800,2
SaccadeExp6,17436,Colour,126,exp,5,3,close,1000,300,50,B,P,FALSE,2636.50100000016,60907d2c5f61cc203cab58e4,1280,800,2
SaccadeExp6,17436,Colour,127,exp,5,1,close,1000,450,200,R,R,TRUE,356.391999999993,60907d2c5f61cc203cab58e4,1280,800,2
SaccadeExp6,17436,Colour,128,exp,5,4,close,1000,650,400,R,R,TRUE,1570.21000000602,60907d2c5f61cc203cab58e4,1280,800,2
SaccadeExp6,17436,Colour,129,exp,5,1,close,600,300,50,R,P,FALSE,422.604000005871,60907d2c5f61cc203cab58e4,1280,800,2
SaccadeExp6,17436,Colour,130,exp,5,3,close,1000,450,200,P,R,FALSE,2784.28800000018,60907d2c5f61cc203cab58e4,1280,800,2
SaccadeExp6,17436,Colour,131,exp,5,2,close,200,450,200,R,P,FALSE,1500.81600000616,60907d2c5f61cc203cab58e4,1280,800,2
SaccadeExp6,17436,Colour,132,exp,5,4,close,600,300,50,B,P,FALSE,3252.00600000005,60907d2c5f61cc203cab58e4,1280,800,2
SaccadeExp6,17436,Colour,133,exp,5,3,close,1800,300,50,R,R,TRUE,3669.52100000577,60907d2c5f61cc203cab58e4,1280,800,2
SaccadeExp6,17436,Colour,134,exp,5,2,close,600,300,50,P,B,FALSE,3293.09100000001,60907d2c5f61cc203cab58e4,1280,800,2
SaccadeExp6,17436,Colour,135,exp,5,1,close,1000,300,50,R,P,FALSE,172.465000005905,60907d2c5f61cc203cab58e4,1280,800,2
SaccadeExp6,17436,Colour,136,exp,5,2,close,1800,450,200,P,R,FALSE,322.881000006106,60907d2c5f61cc203cab58e4,1280,800,2
SaccadeExp6,17436,Colour,137,exp,5,1,close,1400,300,50,P,P,TRUE,618.921000000089,60907d2c5f61cc203cab58e4,1280,800,2
SaccadeExp6,17436,Colour,138,exp,5,1,close,1400,300,50,B,R,FALSE,3156.91800000006,60907d2c5f61cc203cab58e4,1280,800,2
SaccadeExp6,17436,Colour,139,exp,5,1,close,600,650,400,P,P,TRUE,97.0060000061058,60907d2c5f61cc203cab58e4,1280,800,2
SaccadeExp6,17436,Colour,140,exp,5,2,close,200,300,50,P,B,FALSE,312.888000005856,60907d2c5f61cc203cab58e4,1280,800,2
SaccadeExp6,17436,Colour,141,exp,5,4,close,1800,450,200,P,P,TRUE,8087.6320000058,60907d2c5f61cc203cab58e4,1280,800,2
SaccadeExp6,17436,Colour,142,exp,5,1,close,1000,450,200,P,R,FALSE,398.069000006188,60907d2c5f61cc203cab58e4,1280,800,2
SaccadeExp6,17436,Colour,143,exp,5,4,close,1400,650,400,R,P,FALSE,817.888999999966,60907d2c5f61cc203cab58e4,1280,800,2
SaccadeExp6,17436,Colour,144,exp,5,2,close,200,450,200,P,P,TRUE,2300.60100000584,60907d2c5f61cc203cab58e4,1280,800,2
SaccadeExp6,17436,Colour,145,exp,5,1,close,1400,650,400,R,P,FALSE,9212.45700000599,60907d2c5f61cc203cab58e4,1280,800,2
SaccadeExp6,17436,Colour,146,exp,5,3,close,1400,650,400,P,P,TRUE,780.217999993823,60907d2c5f61cc203cab58e4,1280,800,2
SaccadeExp6,17436,Colour,147,exp,5,2,close,1000,650,400,R,B,FALSE,7063.73800000595,60907d2c5f61cc203cab58e4,1280,800,2
SaccadeExp6,17436,Colour,148,exp,5,4,close,200,650,400,B,R,FALSE,378.282000006177,60907d2c5f61cc203cab58e4,1280,800,2
SaccadeExp6,17436,Colour,149,exp,5,4,close,1400,650,400,B,P,FALSE,1623.35000000615,60907d2c5f61cc203cab58e4,1280,800,2
SaccadeExp6,17436,Colour,150,exp,5,1,close,600,650,400,R,B,FALSE,378.894000005908,60907d2c5f61cc203cab58e4,1280,800,2
SaccadeExp6,17436,Colour,151,exp,5,4,close,1000,300,50,P,R,FALSE,2328.7570000058,60907d2c5f61cc203cab58e4,1280,800,2
SaccadeExp6,17436,Colour,152,exp,5,3,close,1400,450,200,R,R,TRUE,2127.1549999998,60907d2c5f61cc203cab58e4,1280,800,2
SaccadeExp6,17436,Colour,153,exp,5,2,close,1800,300,50,R,B,FALSE,1873.68900000583,60907d2c5f61cc203cab58e4,1280,800,2
SaccadeExp6,17436,Colour,154,exp,5,1,close,1000,650,400,P,B,FALSE,5931.7209999999,60907d2c5f61cc203cab58e4,1280,800,2
SaccadeExp6,17436,Colour,155,exp,5,4,close,1400,650,400,P,P,TRUE,253.534000006039,60907d2c5f61cc203cab58e4,1280,800,2
SaccadeExp6,17436,Colour,156,exp,5,4,close,1000,450,200,P,R,FALSE,191.683999999892,60907d2c5f61cc203cab58e4,1280,800,2
SaccadeExp6,17436,Colour,157,exp,5,4,close,1800,450,200,B,P,FALSE,301.425999999978,60907d2c5f61cc203cab58e4,1280,800,2
SaccadeExp6,17436,Colour,158,exp,5,3,close,600,450,200,B,R,FALSE,186.016000005882,60907d2c5f61cc203cab58e4,1280,800,2
SaccadeExp6,17436,Colour,159,exp,5,1,close,600,450,200,B,P,FALSE,400.286000005901,60907d2c5f61cc203cab58e4,1280,800,2
SaccadeExp6,17436,Colour,160,exp,5,2,close,1000,650,400,P,R,FALSE,3861.53000000585,60907d2c5f61cc203cab58e4,1280,800,2
SaccadeExp6,17436,Colour,161,exp,5,2,close,200,650,400,B,B,TRUE,4124.32200000575,60907d2c5f61cc203cab58e4,1280,800,2
SaccadeExp6,17436,Colour,162,exp,5,4,close,200,450,200,B,B,TRUE,5882.35600000573,60907d2c5f61cc203cab58e4,1280,800,2
SaccadeExp6,17436,Colour,163,exp,5,4,close,1800,450,200,R,R,TRUE,2833.93000000576,60907d2c5f61cc203cab58e4,1280,800,2
SaccadeExp6,17436,Colour,164,exp,5,1,close,200,650,400,P,P,TRUE,1996.54799999995,60907d2c5f61cc203cab58e4,1280,800,2
SaccadeExp6,17436,Colour,165,exp,5,3,close,200,650,400,B,P,FALSE,11750.804,60907d2c5f61cc203cab58e4,1280,800,2
SaccadeExp6,17436,Colour,166,exp,5,3,close,600,300,50,R,P,FALSE,16057.5040000002,60907d2c5f61cc203cab58e4,1280,800,2
SaccadeExp6,17436,Colour,167,exp,5,3,close,1000,300,50,R,P,FALSE,14005.247,60907d2c5f61cc203cab58e4,1280,800,2
SaccadeExp6,17436,Colour,168,exp,5,1,close,1400,300,50,R,R,TRUE,295.612999999896,60907d2c5f61cc203cab58e4,1280,800,2
SaccadeExp6,17436,Colour,169,exp,5,3,close,600,650,400,B,P,FALSE,383.629000005778,60907d2c5f61cc203cab58e4,1280,800,2
SaccadeExp6,17436,Colour,170,exp,5,3,close,200,450,200,R,P,FALSE,444.838999994099,60907d2c5f61cc203cab58e4,1280,800,2
SaccadeExp6,17436,Colour,171,exp,5,2,close,1000,300,50,B,R,FALSE,7387.98700000579,60907d2c5f61cc203cab58e4,1280,800,2
SaccadeExp6,17436,Colour,172,exp,5,3,close,1000,650,400,R,P,FALSE,270.14600000577,60907d2c5f61cc203cab58e4,1280,800,2
SaccadeExp6,17436,Colour,173,exp,5,2,close,1400,450,200,B,P,FALSE,456.120000000112,60907d2c5f61cc203cab58e4,1280,800,2
SaccadeExp6,17436,Colour,174,exp,5,4,close,200,300,50,R,R,TRUE,3688.40000000596,60907d2c5f61cc203cab58e4,1280,800,2
SaccadeExp6,17436,Colour,175,exp,5,3,close,1800,300,50,B,B,TRUE,2592.50400000019,60907d2c5f61cc203cab58e4,1280,800,2
SaccadeExp6,17436,Colour,176,exp,5,4,close,1000,300,50,B,P,FALSE,6891.60800000001,60907d2c5f61cc203cab58e4,1280,800,2
SaccadeExp6,17436,Colour,177,exp,5,2,close,200,450,200,B,P,FALSE,125.598000005819,60907d2c5f61cc203cab58e4,1280,800,2
SaccadeExp6,17436,Colour,178,exp,5,2,close,1000,300,50,P,R,FALSE,253.228000000119,60907d2c5f61cc203cab58e4,1280,800,2
SaccadeExp6,17436,Colour,179,exp,5,3,close,600,300,50,B,B,TRUE,247.44200000586,60907d2c5f61cc203cab58e4,1280,800,2
SaccadeExp6,17436,Colour,180,exp,5,1,close,1400,450,200,R,B,FALSE,32633.3160000062,60907d2c5f61cc203cab58e4,1280,800,2
SaccadeExp6,17420,Colour,1,exp,5,4,close,600,300,50,B,R,FALSE,1229.02699997617,5f105fb050ae3d02c17bf90e,1536,864,1.25
SaccadeExp6,17420,Colour,2,exp,5,2,close,200,450,200,R,P,FALSE,1434.95899995233,5f105fb050ae3d02c17bf90e,1536,864,1.25
SaccadeExp6,17420,Colour,3,exp,5,2,close,1400,650,400,B,B,TRUE,1573.90599990464,5f105fb050ae3d02c17bf90e,1536,864,1.25
SaccadeExp6,17420,Colour,4,exp,5,4,close,1400,300,50,P,R,FALSE,1648.50299990462,5f105fb050ae3d02c17bf90e,1536,864,1.25
SaccadeExp6,17420,Colour,5,exp,5,1,close,600,650,400,B,R,FALSE,1304.19099990462,5f105fb050ae3d02c17bf90e,1536,864,1.25
SaccadeExp6,17420,Colour,6,exp,5,1,close,1800,300,50,P,P,TRUE,1273.41999990464,5f105fb050ae3d02c17bf90e,1536,864,1.25
SaccadeExp6,17420,Colour,7,exp,5,3,close,1000,650,400,P,P,TRUE,844.150999952311,5f105fb050ae3d02c17bf90e,1536,864,1.25
SaccadeExp6,17420,Colour,8,exp,5,3,close,200,450,200,R,R,TRUE,1463.14000000001,5f105fb050ae3d02c17bf90e,1536,864,1.25
SaccadeExp6,17420,Colour,9,exp,5,3,close,1400,450,200,B,B,TRUE,2562.66499992847,5f105fb050ae3d02c17bf90e,1536,864,1.25
SaccadeExp6,17420,Colour,10,exp,5,1,close,1800,300,50,B,B,TRUE,1503.62599995232,5f105fb050ae3d02c17bf90e,1536,864,1.25
SaccadeExp6,17420,Colour,11,exp,5,3,close,600,650,400,R,B,FALSE,1486.33099997617,5f105fb050ae3d02c17bf90e,1536,864,1.25
SaccadeExp6,17420,Colour,12,exp,5,1,close,1400,300,50,B,B,TRUE,879.399999976158,5f105fb050ae3d02c17bf90e,1536,864,1.25
SaccadeExp6,17420,Colour,13,exp,5,2,close,1000,650,400,B,R,FALSE,1139.747,5f105fb050ae3d02c17bf90e,1536,864,1.25
SaccadeExp6,17420,Colour,14,exp,5,2,close,600,300,50,B,R,FALSE,919.045999928465,5f105fb050ae3d02c17bf90e,1536,864,1.25
SaccadeExp6,17420,Colour,15,exp,5,1,close,1000,300,50,R,R,TRUE,1224.03699992847,5f105fb050ae3d02c17bf90e,1536,864,1.25
SaccadeExp6,17420,Colour,16,exp,5,4,close,200,450,200,P,P,TRUE,764.00899995229,5f105fb050ae3d02c17bf90e,1536,864,1.25
SaccadeExp6,17420,Colour,17,exp,5,2,close,1800,300,50,B,R,FALSE,2693.34799995233,5f105fb050ae3d02c17bf90e,1536,864,1.25
SaccadeExp6,17420,Colour,18,exp,5,4,close,1800,650,400,P,P,TRUE,1379.19099990465,5f105fb050ae3d02c17bf90e,1536,864,1.25
SaccadeExp6,17420,Colour,19,exp,5,2,close,1000,650,400,P,P,TRUE,1246.30299995234,5f105fb050ae3d02c17bf90e,1536,864,1.25
SaccadeExp6,17420,Colour,20,exp,5,2,close,1800,650,400,B,B,TRUE,1281.95500000002,5f105fb050ae3d02c17bf90e,1536,864,1.25
SaccadeExp6,17420,Colour,21,exp,5,2,close,1400,650,400,P,P,TRUE,604.800999976171,5f105fb050ae3d02c17bf90e,1536,864,1.25
SaccadeExp6,17420,Colour,22,exp,5,2,close,600,450,200,P,P,TRUE,1029.49799990462,5f105fb050ae3d02c17bf90e,1536,864,1.25
SaccadeExp6,17420,Colour,23,exp,5,1,close,600,450,200,R,B,FALSE,2260.55299992848,5f105fb050ae3d02c17bf90e,1536,864,1.25
SaccadeExp6,17420,Colour,24,exp,5,4,close,1000,300,50,R,R,TRUE,1231.41999997618,5f105fb050ae3d02c17bf90e,1536,864,1.25
SaccadeExp6,17420,Colour,25,exp,5,2,close,1000,450,200,R,P,FALSE,2194.18800000002,5f105fb050ae3d02c17bf90e,1536,864,1.25
SaccadeExp6,17420,Colour,26,exp,5,3,close,200,300,50,P,R,FALSE,1637.06699999998,5f105fb050ae3d02c17bf90e,1536,864,1.25
SaccadeExp6,17420,Colour,27,exp,5,1,close,1800,650,400,B,R,FALSE,1519.353,5f105fb050ae3d02c17bf90e,1536,864,1.25
SaccadeExp6,17420,Colour,28,exp,5,3,close,1000,450,200,P,P,TRUE,667.137999999977,5f105fb050ae3d02c17bf90e,1536,864,1.25
SaccadeExp6,17420,Colour,29,exp,5,2,close,1400,300,50,B,R,FALSE,1530.74200000003,5f105fb050ae3d02c17bf90e,1536,864,1.25
SaccadeExp6,17420,Colour,30,exp,5,4,close,1800,650,400,R,R,TRUE,1150.93899995234,5f105fb050ae3d02c17bf90e,1536,864,1.25
SaccadeExp6,17420,Colour,31,exp,5,2,close,200,300,50,B,R,FALSE,1274.38599997613,5f105fb050ae3d02c17bf90e,1536,864,1.25
SaccadeExp6,17420,Colour,32,exp,5,4,close,1400,300,50,B,B,TRUE,961.465999928478,5f105fb050ae3d02c17bf90e,1536,864,1.25
SaccadeExp6,17420,Colour,33,exp,5,2,close,600,650,400,B,B,TRUE,1143.299,5f105fb050ae3d02c17bf90e,1536,864,1.25
SaccadeExp6,17420,Colour,34,exp,5,4,close,200,300,50,P,R,FALSE,894.716999952332,5f105fb050ae3d02c17bf90e,1536,864,1.25
SaccadeExp6,17420,Colour,35,exp,5,2,close,600,450,200,R,R,TRUE,745.168999976129,5f105fb050ae3d02c17bf90e,1536,864,1.25
SaccadeExp6,17420,Colour,36,exp,5,1,close,1800,300,50,R,P,FALSE,1287.82799990464,5f105fb050ae3d02c17bf90e,1536,864,1.25
SaccadeExp6,17420,Colour,37,exp,5,3,close,1800,650,400,P,P,TRUE,684.086999904655,5f105fb050ae3d02c17bf90e,1536,864,1.25
SaccadeExp6,17420,Colour,38,exp,5,3,close,1400,300,50,R,P,FALSE,1628.86599990464,5f105fb050ae3d02c17bf90e,1536,864,1.25
SaccadeExp6,17420,Colour,39,exp,5,4,close,1400,450,200,R,R,TRUE,1417.76899999997,5f105fb050ae3d02c17bf90e,1536,864,1.25
SaccadeExp6,17420,Colour,40,exp,5,4,close,1400,650,400,R,R,TRUE,1379.58599992847,5f105fb050ae3d02c17bf90e,1536,864,1.25
SaccadeExp6,17420,Colour,41,exp,5,4,close,200,450,200,R,R,TRUE,784.160999928485,5f105fb050ae3d02c17bf90e,1536,864,1.25
SaccadeExp6,17420,Colour,42,exp,5,3,close,600,650,400,B,P,FALSE,1395.08299999998,5f105fb050ae3d02c17bf90e,1536,864,1.25
SaccadeExp6,17420,Colour,43,exp,5,1,close,1000,300,50,P,P,TRUE,1255.42199990462,5f105fb050ae3d02c17bf90e,1536,864,1.25
SaccadeExp6,17420,Colour,44,exp,5,2,close,1400,450,200,B,P,FALSE,2288.52699990466,5f105fb050ae3d02c17bf90e,1536,864,1.25
SaccadeExp6,17420,Colour,45,exp,5,4,close,1000,450,200,B,B,TRUE,1209.27199995233,5f105fb050ae3d02c17bf90e,1536,864,1.25
SaccadeExp6,17420,Colour,46,exp,5,4,close,200,300,50,R,R,TRUE,1290.66700000002,5f105fb050ae3d02c17bf90e,1536,864,1.25
SaccadeExp6,17420,Colour,47,exp,5,3,close,1800,300,50,P,P,TRUE,1044.43799990462,5f105fb050ae3d02c17bf90e,1536,864,1.25
SaccadeExp6,17420,Colour,48,exp,5,4,close,1400,300,50,R,R,TRUE,1106.70000000001,5f105fb050ae3d02c17bf90e,1536,864,1.25
SaccadeExp6,17420,Colour,49,exp,5,3,close,200,450,200,B,B,TRUE,802.523999928497,5f105fb050ae3d02c17bf90e,1536,864,1.25
SaccadeExp6,17420,Colour,50,exp,5,3,close,1000,450,200,B,B,TRUE,1386.86700000003,5f105fb050ae3d02c17bf90e,1536,864,1.25
SaccadeExp6,17420,Colour,51,exp,5,1,close,1000,650,400,R,R,TRUE,1319.83499997616,5f105fb050ae3d02c17bf90e,1536,864,1.25
SaccadeExp6,17420,Colour,52,exp,5,3,close,1400,650,400,P,P,TRUE,801.191999952309,5f105fb050ae3d02c17bf90e,1536,864,1.25
SaccadeExp6,17420,Colour,53,exp,5,2,close,1800,650,400,P,P,TRUE,625.189000000013,5f105fb050ae3d02c17bf90e,1536,864,1.25
SaccadeExp6,17420,Colour,54,exp,5,4,close,600,450,200,P,P,TRUE,1145.61900000001,5f105fb050ae3d02c17bf90e,1536,864,1.25
SaccadeExp6,17420,Colour,55,exp,5,2,close,200,650,400,R,R,TRUE,1722.60999992845,5f105fb050ae3d02c17bf90e,1536,864,1.25
SaccadeExp6,17420,Colour,56,exp,5,2,close,200,450,200,P,P,TRUE,743.35399995232,5f105fb050ae3d02c17bf90e,1536,864,1.25
SaccadeExp6,17420,Colour,57,exp,5,4,close,1400,450,200,P,R,FALSE,1096.74300000002,5f105fb050ae3d02c17bf90e,1536,864,1.25
SaccadeExp6,17420,Colour,58,exp,5,4,close,1000,650,400,R,R,TRUE,816.811999999976,5f105fb050ae3d02c17bf90e,1536,864,1.25
SaccadeExp6,17420,Colour,59,exp,5,1,close,1400,450,200,R,R,TRUE,1081.60199995234,5f105fb050ae3d02c17bf90e,1536,864,1.25
SaccadeExp6,17420,Colour,60,exp,5,2,close,1800,450,200,P,B,FALSE,1539.51199992845,5f105fb050ae3d02c17bf90e,1536,864,1.25
SaccadeExp6,17420,Colour,61,exp,5,3,close,600,300,50,R,R,TRUE,687.989999976184,5f105fb050ae3d02c17bf90e,1536,864,1.25
SaccadeExp6,17420,Colour,62,exp,5,4,close,1400,450,200,B,P,FALSE,1593.67299997614,5f105fb050ae3d02c17bf90e,1536,864,1.25
SaccadeExp6,17420,Colour,63,exp,5,2,close,1000,450,200,P,P,TRUE,1896.67299997614,5f105fb050ae3d02c17bf90e,1536,864,1.25
SaccadeExp6,17420,Colour,64,exp,5,2,close,1800,650,400,R,R,TRUE,1112.28999995231,5f105fb050ae3d02c17bf90e,1536,864,1.25
SaccadeExp6,17420,Colour,65,exp,5,3,close,1000,450,200,R,R,TRUE,769.229999976174,5f105fb050ae3d02c17bf90e,1536,864,1.25
SaccadeExp6,17420,Colour,66,exp,5,2,close,1000,300,50,B,R,FALSE,717.000999999989,5f105fb050ae3d02c17bf90e,1536,864,1.25
SaccadeExp6,17420,Colour,67,exp,5,4,close,600,300,50,P,P,TRUE,814.603999904648,5f105fb050ae3d02c17bf90e,1536,864,1.25
SaccadeExp6,17420,Colour,68,exp,5,1,close,1800,450,200,P,P,TRUE,598.633999904618,5f105fb050ae3d02c17bf90e,1536,864,1.25
SaccadeExp6,17420,Colour,69,exp,5,2,close,1800,300,50,P,R,FALSE,1089.47700000001,5f105fb050ae3d02c17bf90e,1536,864,1.25
SaccadeExp6,17420,Colour,70,exp,5,4,close,600,450,200,R,R,TRUE,797.36299990461,5f105fb050ae3d02c17bf90e,1536,864,1.25
SaccadeExp6,17420,Colour,71,exp,5,3,close,1400,450,200,R,R,TRUE,904.330999904661,5f105fb050ae3d02c17bf90e,1536,864,1.25
SaccadeExp6,17420,Colour,72,exp,5,1,close,1800,650,400,R,R,TRUE,827.480999952299,5f105fb050ae3d02c17bf90e,1536,864,1.25
SaccadeExp6,17420,Colour,73,exp,5,3,close,1400,650,400,R,R,TRUE,1153.54799997614,5f105fb050ae3d02c17bf90e,1536,864,1.25
SaccadeExp6,17420,Colour,74,exp,5,3,close,200,650,400,P,R,FALSE,1010.94699995231,5f105fb050ae3d02c17bf90e,1536,864,1.25
SaccadeExp6,17420,Colour,75,exp,5,3,close,200,650,400,R,R,TRUE,550.802000000025,5f105fb050ae3d02c17bf90e,1536,864,1.25
SaccadeExp6,17420,Colour,76,exp,5,1,close,1000,300,50,B,P,FALSE,1045.66199990461,5f105fb050ae3d02c17bf90e,1536,864,1.25
SaccadeExp6,17420,Colour,77,exp,5,3,close,1400,650,400,B,R,FALSE,1730.09999999998,5f105fb050ae3d02c17bf90e,1536,864,1.25
SaccadeExp6,17420,Colour,78,exp,5,3,close,1800,650,400,R,R,TRUE,617.396000000008,5f105fb050ae3d02c17bf90e,1536,864,1.25
SaccadeExp6,17420,Colour,79,exp,5,2,close,1800,300,50,R,R,TRUE,1653.10099992849,5f105fb050ae3d02c17bf90e,1536,864,1.25
SaccadeExp6,17420,Colour,80,exp,5,3,close,600,450,200,P,R,FALSE,1187.72699995234,5f105fb050ae3d02c17bf90e,1536,864,1.25
SaccadeExp6,17420,Colour,81,exp,5,4,close,1400,650,400,P,P,TRUE,562.783999999985,5f105fb050ae3d02c17bf90e,1536,864,1.25
SaccadeExp6,17420,Colour,82,exp,5,1,close,1000,450,200,P,P,TRUE,721.573999928427,5f105fb050ae3d02c17bf90e,1536,864,1.25
SaccadeExp6,17420,Colour,83,exp,5,2,close,600,450,200,B,P,FALSE,1448.64499995229,5f105fb050ae3d02c17bf90e,1536,864,1.25
SaccadeExp6,17420,Colour,84,exp,5,4,close,1000,300,50,B,R,FALSE,779.411999952281,5f105fb050ae3d02c17bf90e,1536,864,1.25
SaccadeExp6,17420,Colour,85,exp,5,2,close,200,650,400,P,R,FALSE,1365.40299997618,5f105fb050ae3d02c17bf90e,1536,864,1.25
SaccadeExp6,17420,Colour,86,exp,5,1,close,1400,650,400,P,P,TRUE,677.430000000051,5f105fb050ae3d02c17bf90e,1536,864,1.25
SaccadeExp6,17420,Colour,87,exp,5,3,close,600,450,200,B,P,FALSE,1513.47199992847,5f105fb050ae3d02c17bf90e,1536,864,1.25
SaccadeExp6,17420,Colour,88,exp,5,2,close,1800,450,200,R,B,FALSE,1591.70600000001,5f105fb050ae3d02c17bf90e,1536,864,1.25
SaccadeExp6,17420,Colour,89,exp,5,4,close,600,650,400,P,P,TRUE,560.227999904659,5f105fb050ae3d02c17bf90e,1536,864,1.25
SaccadeExp6,17420,Colour,90,exp,5,2,close,200,300,50,P,B,FALSE,1166.22899997619,5f105fb050ae3d02c17bf90e,1536,864,1.25
SaccadeExp6,17420,Colour,91,exp,5,1,close,1400,650,400,R,R,TRUE,1475.62599992845,5f105fb050ae3d02c17bf90e,1536,864,1.25
SaccadeExp6,17420,Colour,92,exp,5,4,close,200,650,400,P,P,TRUE,656.178999976139,5f105fb050ae3d02c17bf90e,1536,864,1.25
SaccadeExp6,17420,Colour,93,exp,5,4,close,1800,300,50,B,P,FALSE,1831.80199997616,5f105fb050ae3d02c17bf90e,1536,864,1.25
SaccadeExp6,17420,Colour,94,exp,5,3,close,600,300,50,B,B,TRUE,1470.76299995231,5f105fb050ae3d02c17bf90e,1536,864,1.25
SaccadeExp6,17420,Colour,95,exp,5,3,close,1000,300,50,B,B,TRUE,556.195999976131,5f105fb050ae3d02c17bf90e,1536,864,1.25
SaccadeExp6,17420,Colour,96,exp,5,2,close,1000,450,200,B,B,TRUE,1136.01799995231,5f105fb050ae3d02c17bf90e,1536,864,1.25
SaccadeExp6,17420,Colour,97,exp,5,3,close,1800,650,400,B,B,TRUE,1166.12999995227,5f105fb050ae3d02c17bf90e,1536,864,1.25
SaccadeExp6,17420,Colour,98,exp,5,1,close,1000,450,200,R,R,TRUE,1497.09299990465,5f105fb050ae3d02c17bf90e,1536,864,1.25
SaccadeExp6,17420,Colour,99,exp,5,2,close,200,650,400,B,B,TRUE,1129.72299992852,5f105fb050ae3d02c17bf90e,1536,864,1.25
SaccadeExp6,17420,Colour,100,exp,5,3,close,200,650,400,B,B,TRUE,705.211999976193,5f105fb050ae3d02c17bf90e,1536,864,1.25
SaccadeExp6,17420,Colour,101,exp,5,1,close,1000,450,200,B,B,TRUE,1216.21699995233,5f105fb050ae3d02c17bf90e,1536,864,1.25
SaccadeExp6,17420,Colour,102,exp,5,4,close,1000,300,50,P,P,TRUE,857.371999976109,5f105fb050ae3d02c17bf90e,1536,864,1.25
SaccadeExp6,17420,Colour,103,exp,5,1,close,1800,650,400,P,P,TRUE,923.047999999952,5f105fb050ae3d02c17bf90e,1536,864,1.25
SaccadeExp6,17420,Colour,104,exp,5,2,close,1400,650,400,R,R,TRUE,1168.24899999995,5f105fb050ae3d02c17bf90e,1536,864,1.25
SaccadeExp6,17420,Colour,105,exp,5,3,close,1800,300,50,R,R,TRUE,1461.3289999523,5f105fb050ae3d02c17bf90e,1536,864,1.25
SaccadeExp6,17420,Colour,106,exp,5,3,close,200,300,50,B,B,TRUE,934.187999952352,5f105fb050ae3d02c17bf90e,1536,864,1.25
SaccadeExp6,17420,Colour,107,exp,5,1,close,200,650,400,R,B,FALSE,2599.2389999046,5f105fb050ae3d02c17bf90e,1536,864,1.25
SaccadeExp6,17420,Colour,108,exp,5,4,close,600,650,400,R,P,FALSE,1504.35199999996,5f105fb050ae3d02c17bf90e,1536,864,1.25
SaccadeExp6,17420,Colour,109,exp,5,1,close,200,300,50,B,B,TRUE,818.978999928455,5f105fb050ae3d02c17bf90e,1536,864,1.25
SaccadeExp6,17420,Colour,110,exp,5,3,close,1800,300,50,B,B,TRUE,675.950999952271,5f105fb050ae3d02c17bf90e,1536,864,1.25
SaccadeExp6,17420,Colour,111,exp,5,2,close,1800,450,200,B,B,TRUE,1442.70099992852,5f105fb050ae3d02c17bf90e,1536,864,1.25
SaccadeExp6,17420,Colour,112,exp,5,3,close,600,300,50,P,P,TRUE,793.811999928439,5f105fb050ae3d02c17bf90e,1536,864,1.25
SaccadeExp6,17420,Colour,113,exp,5,4,close,200,300,50,B,P,FALSE,1683.7519999285,5f105fb050ae3d02c17bf90e,1536,864,1.25
SaccadeExp6,17420,Colour,114,exp,5,4,close,1000,450,200,P,B,FALSE,1749.61099992844,5f105fb050ae3d02c17bf90e,1536,864,1.25
SaccadeExp6,17420,Colour,115,exp,5,3,close,200,450,200,P,P,TRUE,743.720999976154,5f105fb050ae3d02c17bf90e,1536,864,1.25
SaccadeExp6,17420,Colour,116,exp,5,3,close,1000,300,50,R,R,TRUE,961.485999976168,5f105fb050ae3d02c17bf90e,1536,864,1.25
SaccadeExp6,17420,Colour,117,exp,5,3,close,1000,650,400,R,P,FALSE,954.667999928468,5f105fb050ae3d02c17bf90e,1536,864,1.25
SaccadeExp6,17420,Colour,118,exp,5,4,close,1000,650,400,P,P,TRUE,691.85099990468,5f105fb050ae3d02c17bf90e,1536,864,1.25
SaccadeExp6,17420,Colour,119,exp,5,3,close,1000,650,400,B,P,FALSE,1473.48599990469,5f105fb050ae3d02c17bf90e,1536,864,1.25
SaccadeExp6,17420,Colour,120,exp,5,2,close,1400,300,50,P,R,FALSE,1193.70699990459,5f105fb050ae3d02c17bf90e,1536,864,1.25
SaccadeExp6,17420,Colour,121,exp,5,2,close,1000,650,400,R,R,TRUE,815.232999976142,5f105fb050ae3d02c17bf90e,1536,864,1.25
SaccadeExp6,17420,Colour,122,exp,5,3,close,1800,450,200,B,B,TRUE,2398.06899992842,5f105fb050ae3d02c17bf90e,1536,864,1.25
SaccadeExp6,17420,Colour,123,exp,5,4,close,1000,450,200,R,R,TRUE,1503.2569999285,5f105fb050ae3d02c17bf90e,1536,864,1.25
SaccadeExp6,17420,Colour,124,exp,5,2,close,600,650,400,R,R,TRUE,1560.83600000001,5f105fb050ae3d02c17bf90e,1536,864,1.25
SaccadeExp6,17420,Colour,125,exp,5,1,close,600,650,400,P,P,TRUE,619.789999952307,5f105fb050ae3d02c17bf90e,1536,864,1.25
SaccadeExp6,17420,Colour,126,exp,5,4,close,200,450,200,B,P,FALSE,1807.63299992844,5f105fb050ae3d02c17bf90e,1536,864,1.25
SaccadeExp6,17420,Colour,127,exp,5,1,close,600,650,400,R,R,TRUE,1396.42799995234,5f105fb050ae3d02c17bf90e,1536,864,1.25
SaccadeExp6,17420,Colour,128,exp,5,1,close,600,300,50,B,R,FALSE,870.845999928424,5f105fb050ae3d02c17bf90e,1536,864,1.25
