ID,Block,trial,cueLoc,stimLoc,locDist,FixDur,CTI,stim,response,correct,RTms,prolific_id
17321,Colour,0,5,2,NA,600,400,P,B,FALSE,12451.917,611e283064ad72ef8c6f48cd
17321,Colour,0,5,4,NA,1400,200,P,P,TRUE,5002.61499990465,611e283064ad72ef8c6f48cd
17321,Colour,0,5,4,NA,600,200,R,R,TRUE,1776.6189999523,611e283064ad72ef8c6f48cd
17321,Colour,0,5,2,NA,200,200,B,P,FALSE,2715.88499990464,611e283064ad72ef8c6f48cd
17321,Colour,0,5,1,NA,200,200,R,R,TRUE,1759.00999997614,611e283064ad72ef8c6f48cd
17321,Colour,0,5,2,NA,1000,200,B,P,FALSE,791.966999976168,611e283064ad72ef8c6f48cd
17321,Colour,0,5,1,NA,1400,50,P,R,FALSE,1866.8419999523,611e283064ad72ef8c6f48cd
17321,Colour,0,5,4,NA,1400,400,P,P,TRUE,827.241999999998,611e283064ad72ef8c6f48cd
17321,Colour,0,5,3,NA,1400,400,B,B,TRUE,128.032999928459,611e283064ad72ef8c6f48cd
17321,Colour,0,5,3,NA,1000,200,P,P,TRUE,1352.17599995231,611e283064ad72ef8c6f48cd
17321,Colour,1,5,1,NA,1800,400,R,P,FALSE,1447.8069999523,611e283064ad72ef8c6f48cd
17321,Colour,2,5,3,NA,200,50,B,B,TRUE,956.157000000007,611e283064ad72ef8c6f48cd
17321,Colour,3,5,1,NA,200,200,R,R,TRUE,617.52599995234,611e283064ad72ef8c6f48cd
17321,Colour,4,5,3,NA,1400,400,R,B,FALSE,2178.87699995231,611e283064ad72ef8c6f48cd
17321,Colour,5,5,2,NA,600,400,R,R,TRUE,825.837999928452,611e283064ad72ef8c6f48cd
17321,Colour,6,5,3,NA,1800,200,P,P,TRUE,435.507999976166,611e283064ad72ef8c6f48cd
17321,Colour,7,5,1,NA,1000,400,P,B,FALSE,54.2389999761363,611e283064ad72ef8c6f48cd
17321,Colour,8,5,4,NA,600,200,B,R,FALSE,388.988999976136,611e283064ad72ef8c6f48cd
17321,Colour,9,5,4,NA,1800,50,R,P,FALSE,1748.61399995233,611e283064ad72ef8c6f48cd
17321,Colour,10,5,4,NA,1800,200,B,P,FALSE,142.561999904632,611e283064ad72ef8c6f48cd
17321,Colour,11,5,2,NA,1000,400,R,B,FALSE,72.9969999046298,611e283064ad72ef8c6f48cd
17321,Colour,12,5,1,NA,1000,50,B,B,TRUE,416.341999952332,611e283064ad72ef8c6f48cd
17321,Colour,13,5,2,NA,600,200,P,P,TRUE,482.30199997616,611e283064ad72ef8c6f48cd
17321,Colour,14,5,1,NA,1000,50,R,R,TRUE,383.727000000014,611e283064ad72ef8c6f48cd
17321,Colour,15,5,1,NA,200,400,R,P,FALSE,204.174999952316,611e283064ad72ef8c6f48cd
17321,Colour,16,5,4,NA,200,400,R,P,FALSE,329.482999976142,611e283064ad72ef8c6f48cd
17321,Colour,17,5,1,NA,600,50,B,R,FALSE,421.123999928473,611e283064ad72ef8c6f48cd
17321,Colour,18,5,4,NA,1400,50,B,B,TRUE,1086.57999990461,611e283064ad72ef8c6f48cd
17321,Colour,19,5,4,NA,600,50,R,B,FALSE,496.547999904607,611e283064ad72ef8c6f48cd
17321,Colour,20,5,3,NA,1400,50,P,R,FALSE,201.651000000013,611e283064ad72ef8c6f48cd
17321,Colour,21,5,2,NA,1000,200,B,P,FALSE,38.1410000000033,611e283064ad72ef8c6f48cd
17321,Colour,22,5,2,NA,1400,200,R,R,TRUE,218.961999952327,611e283064ad72ef8c6f48cd
17321,Colour,23,5,4,NA,1000,50,B,P,FALSE,448.639999928477,611e283064ad72ef8c6f48cd
17321,Colour,24,5,3,NA,600,400,R,B,FALSE,277.565999928454,611e283064ad72ef8c6f48cd
17321,Colour,25,5,4,NA,1400,50,P,B,FALSE,223.63799997617,611e283064ad72ef8c6f48cd
17321,Colour,26,5,1,NA,1000,200,R,P,FALSE,215.661999976146,611e283064ad72ef8c6f48cd
17321,Colour,27,5,2,NA,200,50,P,B,FALSE,993.390999904659,611e283064ad72ef8c6f48cd
17321,Colour,28,5,4,NA,200,400,P,R,FALSE,254.233999999997,611e283064ad72ef8c6f48cd
17321,Colour,29,5,4,NA,1800,50,B,R,FALSE,165.18599997618,611e283064ad72ef8c6f48cd
17321,Colour,30,5,3,NA,1000,50,R,B,FALSE,188.68599997618,611e283064ad72ef8c6f48cd
17321,Colour,31,5,3,NA,1400,200,P,B,FALSE,565.485999976168,611e283064ad72ef8c6f48cd
17321,Colour,32,5,4,NA,600,400,P,P,TRUE,190.488999928464,611e283064ad72ef8c6f48cd
17321,Colour,33,5,4,NA,600,50,P,B,FALSE,468.908999928448,611e283064ad72ef8c6f48cd
17321,Colour,34,5,1,NA,600,400,B,B,TRUE,201.976999928476,611e283064ad72ef8c6f48cd
17321,Colour,35,5,4,NA,1400,400,P,R,FALSE,85.2919999761507,611e283064ad72ef8c6f48cd
17321,Colour,36,5,3,NA,1000,200,P,B,FALSE,284.630999976187,611e283064ad72ef8c6f48cd
17321,Colour,37,5,1,NA,1000,400,B,B,TRUE,172.54399990465,611e283064ad72ef8c6f48cd
17321,Colour,38,5,3,NA,200,400,B,R,FALSE,763.906000000017,611e283064ad72ef8c6f48cd
17321,Colour,39,5,3,NA,200,200,P,R,FALSE,494.367999904614,611e283064ad72ef8c6f48cd
17321,Colour,40,5,4,NA,200,50,B,B,TRUE,142.24699990463,611e283064ad72ef8c6f48cd
17321,Colour,41,5,2,NA,200,200,R,P,FALSE,11.058999904606,611e283064ad72ef8c6f48cd
17321,Colour,42,5,2,NA,1800,50,R,B,FALSE,111.166999928479,611e283064ad72ef8c6f48cd
17321,Colour,43,5,3,NA,1800,400,R,B,FALSE,436.702999928501,611e283064ad72ef8c6f48cd
17321,Colour,44,5,2,NA,1400,400,R,R,TRUE,342.432999928482,611e283064ad72ef8c6f48cd
17321,Colour,45,5,2,NA,1400,200,B,R,FALSE,237.74499997613,611e283064ad72ef8c6f48cd
17321,Colour,46,5,1,NA,200,50,P,P,TRUE,372.965999952343,611e283064ad72ef8c6f48cd
17321,Colour,47,5,4,NA,600,400,B,B,TRUE,284.101999904611,611e283064ad72ef8c6f48cd
17321,Colour,48,5,2,NA,1400,400,P,R,FALSE,11.9689999761758,611e283064ad72ef8c6f48cd
17321,Colour,49,5,1,NA,1800,50,R,R,TRUE,214.083999928494,611e283064ad72ef8c6f48cd
17321,Colour,50,5,3,NA,600,50,R,B,FALSE,776.469999976165,611e283064ad72ef8c6f48cd
17321,Colour,51,5,4,NA,1800,400,P,B,FALSE,140.325999928464,611e283064ad72ef8c6f48cd
17321,Colour,52,5,3,NA,1800,400,B,B,TRUE,116.474999904633,611e283064ad72ef8c6f48cd
17321,Colour,53,5,2,NA,1800,400,R,P,FALSE,147.978999928455,611e283064ad72ef8c6f48cd
17321,Colour,54,5,2,NA,1800,200,B,R,FALSE,152.546999928483,611e283064ad72ef8c6f48cd
17321,Colour,55,5,1,NA,1400,50,B,R,FALSE,242.220999976154,611e283064ad72ef8c6f48cd
17321,Colour,56,5,4,NA,1800,50,P,R,FALSE,329.016999999993,611e283064ad72ef8c6f48cd
17321,Colour,57,5,1,NA,1800,400,P,R,FALSE,760.322999928496,611e283064ad72ef8c6f48cd
17321,Colour,58,5,2,NA,1000,50,R,R,TRUE,354.616999976162,611e283064ad72ef8c6f48cd
17321,Colour,59,5,1,NA,1000,400,R,B,FALSE,288.468999904639,611e283064ad72ef8c6f48cd
17321,Colour,60,5,2,NA,1400,50,R,R,TRUE,436.070999952324,611e283064ad72ef8c6f48cd
17321,Colour,61,5,4,NA,200,50,P,B,FALSE,371.933999976143,611e283064ad72ef8c6f48cd
17321,Colour,62,5,4,NA,1400,50,R,P,FALSE,186.001999999979,611e283064ad72ef8c6f48cd
17321,Colour,63,5,4,NA,1400,400,R,R,TRUE,381.70299999998,611e283064ad72ef8c6f48cd
17321,Colour,64,5,2,NA,600,50,R,B,FALSE,203.543999976129,611e283064ad72ef8c6f48cd
17321,Colour,65,5,4,NA,1800,400,B,B,TRUE,169.778999976174,611e283064ad72ef8c6f48cd
17321,Colour,66,5,2,NA,1800,50,B,P,FALSE,341.275000000023,611e283064ad72ef8c6f48cd
17321,Colour,67,5,1,NA,1000,200,B,B,TRUE,263.027999976184,611e283064ad72ef8c6f48cd
17321,Colour,68,5,3,NA,600,400,P,P,TRUE,888.916999928479,611e283064ad72ef8c6f48cd
17321,Colour,69,5,2,NA,200,400,P,R,FALSE,61.332999928447,611e283064ad72ef8c6f48cd
17321,Colour,70,5,3,NA,200,400,P,R,FALSE,766.514999928477,611e283064ad72ef8c6f48cd
17321,Colour,71,5,4,NA,1400,400,B,R,FALSE,139.294999928446,611e283064ad72ef8c6f48cd
17321,Colour,72,5,1,NA,1800,200,P,B,FALSE,165.615999928501,611e283064ad72ef8c6f48cd
17321,Colour,73,5,4,NA,1400,200,P,R,FALSE,67.6669999523438,611e283064ad72ef8c6f48cd
17321,Colour,74,5,3,NA,600,200,B,R,FALSE,344.309000000008,611e283064ad72ef8c6f48cd
17321,Colour,75,5,1,NA,1800,50,B,R,FALSE,207.575999904657,611e283064ad72ef8c6f48cd
17321,Colour,76,5,3,NA,1000,400,P,R,FALSE,115.435999999987,611e283064ad72ef8c6f48cd
17321,Colour,77,5,1,NA,1800,200,R,P,FALSE,303.648999928497,611e283064ad72ef8c6f48cd
17321,Colour,78,5,1,NA,200,50,B,P,FALSE,347.816999976174,611e283064ad72ef8c6f48cd
17321,Colour,79,5,3,NA,1400,50,B,R,FALSE,155.488999904657,611e283064ad72ef8c6f48cd
17321,Colour,80,5,1,NA,1400,50,R,B,FALSE,178.940999976185,611e283064ad72ef8c6f48cd
17321,Colour,81,5,3,NA,600,50,P,P,TRUE,764.240999928501,611e283064ad72ef8c6f48cd
17321,Colour,82,5,3,NA,1800,50,B,B,TRUE,255.890999904601,611e283064ad72ef8c6f48cd
17321,Colour,83,5,2,NA,600,400,P,B,FALSE,348.097999999998,611e283064ad72ef8c6f48cd
17321,Colour,84,5,2,NA,200,50,R,B,FALSE,147.998000000021,611e283064ad72ef8c6f48cd
17321,Colour,85,5,4,NA,1400,200,R,R,TRUE,3.62899995234329,611e283064ad72ef8c6f48cd
17321,Colour,86,5,1,NA,600,200,P,P,TRUE,313.112999928417,611e283064ad72ef8c6f48cd
17321,Colour,87,5,1,NA,600,400,P,R,FALSE,462.138999999966,611e283064ad72ef8c6f48cd
17321,Colour,88,5,1,NA,1400,400,B,P,FALSE,26.0729999284958,611e283064ad72ef8c6f48cd
17321,Colour,89,5,4,NA,600,50,B,P,FALSE,226.24499997613,611e283064ad72ef8c6f48cd
17321,Colour,90,5,2,NA,200,200,B,B,TRUE,353.72399997618,611e283064ad72ef8c6f48cd
17321,Colour,91,5,2,NA,1000,400,B,P,FALSE,340.904999928433,611e283064ad72ef8c6f48cd
17321,Colour,92,5,2,NA,600,400,B,P,FALSE,192.939999999944,611e283064ad72ef8c6f48cd
17321,Colour,93,5,3,NA,200,50,R,P,FALSE,625.786999976146,611e283064ad72ef8c6f48cd
17321,Colour,94,5,1,NA,200,400,B,B,TRUE,841.412999904598,611e283064ad72ef8c6f48cd
17321,Colour,95,5,4,NA,1000,200,P,P,TRUE,425.990999976173,611e283064ad72ef8c6f48cd
17321,Colour,96,5,4,NA,200,400,B,R,FALSE,516.795999904629,611e283064ad72ef8c6f48cd
17321,Colour,97,5,3,NA,1000,200,B,R,FALSE,414.735999904689,611e283064ad72ef8c6f48cd
17321,Colour,98,5,1,NA,600,400,R,R,TRUE,719.640000000014,611e283064ad72ef8c6f48cd
17321,Colour,99,5,3,NA,200,200,B,P,FALSE,497.762999904575,611e283064ad72ef8c6f48cd
17321,Colour,100,5,1,NA,200,200,P,B,FALSE,235.125999976182,611e283064ad72ef8c6f48cd
17321,Colour,101,5,1,NA,200,200,B,R,FALSE,329.792999999947,611e283064ad72ef8c6f48cd
17321,Colour,102,5,3,NA,200,50,P,R,FALSE,304.016999976127,611e283064ad72ef8c6f48cd
17321,Colour,103,5,1,NA,600,50,P,R,FALSE,288.291999904672,611e283064ad72ef8c6f48cd
17321,Colour,104,5,3,NA,1800,50,R,R,TRUE,258.963999928441,611e283064ad72ef8c6f48cd
17321,Colour,105,5,1,NA,1800,200,B,R,FALSE,429.251999999979,611e283064ad72ef8c6f48cd
17321,Colour,106,5,4,NA,600,400,R,R,TRUE,143.378999999957,611e283064ad72ef8c6f48cd
17321,Colour,107,5,1,NA,200,50,R,P,FALSE,237.502999952296,611e283064ad72ef8c6f48cd
17321,Colour,108,5,2,NA,1800,200,P,R,FALSE,201.596999904606,611e283064ad72ef8c6f48cd
17321,Colour,109,5,1,NA,600,200,R,B,FALSE,149.827999952366,611e283064ad72ef8c6f48cd
17321,Colour,110,5,4,NA,600,200,R,P,FALSE,0.537999999942258,611e283064ad72ef8c6f48cd
17321,Colour,111,5,4,NA,1000,200,R,P,FALSE,153.54700000002,611e283064ad72ef8c6f48cd
17321,Colour,112,5,2,NA,1000,200,P,P,TRUE,231.878999904613,611e283064ad72ef8c6f48cd
17321,Colour,113,5,3,NA,1800,400,P,R,FALSE,285.428999952273,611e283064ad72ef8c6f48cd
17321,Colour,114,5,3,NA,1800,200,B,R,FALSE,130.327000000048,611e283064ad72ef8c6f48cd
17321,Colour,115,5,4,NA,1800,400,R,R,TRUE,8.3699999761302,611e283064ad72ef8c6f48cd
17321,Colour,116,5,2,NA,200,200,P,R,FALSE,381.862999952282,611e283064ad72ef8c6f48cd
17321,Colour,117,5,2,NA,1000,50,B,R,FALSE,168.827000000048,611e283064ad72ef8c6f48cd
17321,Colour,118,5,1,NA,1400,200,R,R,TRUE,173.334999904619,611e283064ad72ef8c6f48cd
17321,Colour,119,5,2,NA,1800,400,B,R,FALSE,154.078999976162,611e283064ad72ef8c6f48cd
17321,Colour,120,5,4,NA,1800,200,R,R,TRUE,287.133000000031,611e283064ad72ef8c6f48cd
17321,Colour,121,5,3,NA,1000,400,R,B,FALSE,101.843999928446,611e283064ad72ef8c6f48cd
17321,Colour,122,5,2,NA,1800,50,P,B,FALSE,149.680999904638,611e283064ad72ef8c6f48cd
17321,Colour,123,5,4,NA,200,50,R,P,FALSE,626.0649999046,611e283064ad72ef8c6f48cd
17321,Colour,124,5,1,NA,1400,400,R,P,FALSE,140.222999999998,611e283064ad72ef8c6f48cd
17321,Colour,125,5,3,NA,1400,200,B,R,FALSE,142.105999976164,611e283064ad72ef8c6f48cd
17321,Colour,126,5,1,NA,1800,400,B,P,FALSE,177.358000000007,611e283064ad72ef8c6f48cd
17321,Colour,127,5,3,NA,1400,400,P,P,TRUE,201.652999928454,611e283064ad72ef8c6f48cd
17321,Colour,128,5,3,NA,1400,200,R,P,FALSE,212.362999952282,611e283064ad72ef8c6f48cd
17321,Colour,129,5,4,NA,1800,200,P,B,FALSE,371.803999928525,611e283064ad72ef8c6f48cd
17321,Colour,130,5,4,NA,1400,200,B,B,TRUE,320.738999904599,611e283064ad72ef8c6f48cd
17321,Colour,131,5,3,NA,1400,50,R,B,FALSE,170.050999952364,611e283064ad72ef8c6f48cd
17321,Colour,132,5,1,NA,1000,200,P,B,FALSE,146.858999904594,611e283064ad72ef8c6f48cd
17321,Colour,133,5,1,NA,1400,50,P,R,FALSE,218.870999952313,611e283064ad72ef8c6f48cd
17321,Colour,134,5,4,NA,200,200,B,P,FALSE,1329.7609999046,611e283064ad72ef8c6f48cd
17321,Colour,135,5,2,NA,1000,200,R,B,FALSE,182.256999976118,611e283064ad72ef8c6f48cd
17321,Colour,136,5,4,NA,200,200,P,P,TRUE,789.20299999998,611e283064ad72ef8c6f48cd
17321,Colour,137,5,2,NA,200,400,R,P,FALSE,251.734999928507,611e283064ad72ef8c6f48cd
17321,Colour,138,5,3,NA,1800,50,P,B,FALSE,274.060999999987,611e283064ad72ef8c6f48cd
17321,Colour,139,5,2,NA,1000,400,P,B,FALSE,148.74999995227,611e283064ad72ef8c6f48cd
17321,Colour,140,5,2,NA,1800,400,P,R,FALSE,304.962999976124,611e283064ad72ef8c6f48cd
17321,Colour,141,5,1,NA,600,50,R,R,TRUE,280.599999928498,611e283064ad72ef8c6f48cd
17321,Colour,142,5,1,NA,1400,200,B,R,FALSE,242.067000000039,611e283064ad72ef8c6f48cd
17321,Colour,143,5,4,NA,1000,50,R,R,TRUE,159.891999976127,611e283064ad72ef8c6f48cd
17321,Colour,144,5,1,NA,1800,50,P,P,TRUE,29.0100000000093,611e283064ad72ef8c6f48cd
17321,Colour,145,5,2,NA,600,50,B,P,FALSE,516.140999952331,611e283064ad72ef8c6f48cd
17321,Colour,146,5,4,NA,1000,400,B,B,TRUE,102.971999999951,611e283064ad72ef8c6f48cd
17321,Colour,147,5,2,NA,1400,200,P,B,FALSE,156.941999976174,611e283064ad72ef8c6f48cd
17321,Colour,148,5,4,NA,1000,400,R,B,FALSE,62.4759999522939,611e283064ad72ef8c6f48cd
17321,Colour,149,5,4,NA,1000,200,B,B,TRUE,362.498999999953,611e283064ad72ef8c6f48cd
17321,Colour,150,5,1,NA,200,400,P,B,FALSE,494.890000000014,611e283064ad72ef8c6f48cd
17321,Colour,151,5,3,NA,200,400,R,P,FALSE,134.330999904661,611e283064ad72ef8c6f48cd
17321,Colour,152,5,3,NA,600,400,B,R,FALSE,371.54700000002,611e283064ad72ef8c6f48cd
17321,Colour,153,5,2,NA,600,200,B,R,FALSE,162.270999928471,611e283064ad72ef8c6f48cd
17321,Colour,154,5,3,NA,1000,50,B,R,FALSE,204.123999999953,611e283064ad72ef8c6f48cd
17321,Colour,155,5,1,NA,1400,200,P,R,FALSE,227.766999952262,611e283064ad72ef8c6f48cd
17321,Colour,156,5,1,NA,1000,50,P,R,FALSE,306.003000000026,611e283064ad72ef8c6f48cd
17321,Colour,157,5,2,NA,1400,50,B,P,FALSE,261.503999952343,611e283064ad72ef8c6f48cd
17321,Colour,158,5,3,NA,1000,400,B,B,TRUE,147.896999976132,611e283064ad72ef8c6f48cd
17321,Colour,159,5,2,NA,1800,200,R,B,FALSE,213.464999976102,611e283064ad72ef8c6f48cd
17321,Colour,160,5,3,NA,1000,50,P,B,FALSE,504.252999952296,611e283064ad72ef8c6f48cd
17321,Colour,161,5,2,NA,1000,50,P,R,FALSE,85.2549999285256,611e283064ad72ef8c6f48cd
17321,Colour,162,5,4,NA,600,200,P,P,TRUE,521.540999904624,611e283064ad72ef8c6f48cd
17321,Colour,163,5,2,NA,1400,50,P,P,TRUE,156.093999976176,611e283064ad72ef8c6f48cd
17321,Colour,164,5,3,NA,600,200,R,P,FALSE,62.5379999523284,611e283064ad72ef8c6f48cd
17321,Colour,165,5,2,NA,600,50,P,R,FALSE,1532.46499995235,611e283064ad72ef8c6f48cd
17321,Colour,166,5,3,NA,200,200,R,B,FALSE,267.996999976109,611e283064ad72ef8c6f48cd
17321,Colour,167,5,4,NA,200,200,R,P,FALSE,487.455999952275,611e283064ad72ef8c6f48cd
17321,Colour,168,5,2,NA,200,50,B,B,TRUE,155.989999999991,611e283064ad72ef8c6f48cd
17321,Colour,169,5,1,NA,1400,400,P,P,TRUE,333.856999928481,611e283064ad72ef8c6f48cd
17321,Colour,170,5,4,NA,1000,50,P,P,TRUE,228.34899997618,611e283064ad72ef8c6f48cd
17321,Colour,171,5,2,NA,1400,400,B,B,TRUE,138.09600000002,611e283064ad72ef8c6f48cd
17321,Colour,172,5,4,NA,1000,400,P,B,FALSE,172.213999928441,611e283064ad72ef8c6f48cd
17321,Colour,173,5,3,NA,600,200,P,B,FALSE,302.939999976195,611e283064ad72ef8c6f48cd
17321,Colour,174,5,3,NA,1800,200,R,B,FALSE,217.442000000039,611e283064ad72ef8c6f48cd
17321,Colour,175,5,3,NA,600,50,B,B,TRUE,192.526999952272,611e283064ad72ef8c6f48cd
17321,Colour,176,5,2,NA,600,200,R,B,FALSE,323.249999928521,611e283064ad72ef8c6f48cd
17321,Colour,177,5,3,NA,1000,200,R,P,FALSE,173.29899992852,611e283064ad72ef8c6f48cd
17321,Colour,178,5,1,NA,600,200,B,R,FALSE,360.440999904647,611e283064ad72ef8c6f48cd
17321,Colour,179,5,2,NA,200,400,B,R,FALSE,279.398999928497,611e283064ad72ef8c6f48cd
17321,Colour,180,5,3,NA,1400,400,B,R,FALSE,85.3719999523601,611e283064ad72ef8c6f48cd
17321,Central,0,5,1,NA,600,50,P,B,FALSE,416.222999999998,611e283064ad72ef8c6f48cd
17321,Central,0,5,4,NA,1800,200,R,R,TRUE,146.037999999942,611e283064ad72ef8c6f48cd
17321,Central,0,5,1,NA,1400,200,B,B,TRUE,65.9980000000214,611e283064ad72ef8c6f48cd
17321,Central,0,5,2,NA,1800,50,P,B,FALSE,161.950999976136,611e283064ad72ef8c6f48cd
17321,Central,0,5,3,NA,200,50,B,P,FALSE,307.930999928503,611e283064ad72ef8c6f48cd
17321,Central,0,5,1,NA,1000,50,B,B,TRUE,194.683999976143,611e283064ad72ef8c6f48cd
17321,Central,0,5,3,NA,1000,400,B,B,TRUE,248.124999976135,611e283064ad72ef8c6f48cd
17321,Central,0,5,1,NA,600,400,R,R,TRUE,312.61499995226,611e283064ad72ef8c6f48cd
17321,Central,0,5,1,NA,1000,400,B,B,TRUE,124.893999999971,611e283064ad72ef8c6f48cd
17321,Central,0,5,2,NA,600,50,R,P,FALSE,213.993999952334,611e283064ad72ef8c6f48cd
17321,Central,1,5,1,NA,600,400,R,B,FALSE,537.682999952347,611e283064ad72ef8c6f48cd
17321,Central,2,5,1,NA,1800,50,B,R,FALSE,167.810999928508,611e283064ad72ef8c6f48cd
17321,Central,3,5,3,NA,200,400,R,B,FALSE,260.985999928438,611e283064ad72ef8c6f48cd
17321,Central,4,5,2,NA,1800,50,B,B,TRUE,29.4499999284744,611e283064ad72ef8c6f48cd
17321,Central,5,5,1,NA,600,200,R,B,FALSE,227.27099999995,611e283064ad72ef8c6f48cd
17321,Central,6,5,2,NA,200,50,P,R,FALSE,213.178999976139,611e283064ad72ef8c6f48cd
17321,Central,7,5,2,NA,1400,400,B,P,FALSE,128.233999952325,611e283064ad72ef8c6f48cd
17321,Central,8,5,1,NA,1800,200,P,P,TRUE,112.030000000028,611e283064ad72ef8c6f48cd
17321,Central,9,5,3,NA,1400,200,R,P,FALSE,356.706999928458,611e283064ad72ef8c6f48cd
17321,Central,10,5,2,NA,1000,400,B,B,TRUE,141.060999976122,611e283064ad72ef8c6f48cd
17321,Central,11,5,3,NA,1800,200,P,B,FALSE,64.2339999523247,611e283064ad72ef8c6f48cd
17321,Central,12,5,3,NA,1400,400,B,B,TRUE,152.565999928513,611e283064ad72ef8c6f48cd
17321,Central,13,5,1,NA,1800,200,R,R,TRUE,24.4609999046661,611e283064ad72ef8c6f48cd
17321,Central,14,5,2,NA,600,50,B,B,TRUE,549.720999952289,611e283064ad72ef8c6f48cd
17321,Central,15,5,4,NA,600,200,P,B,FALSE,181.970999952289,611e283064ad72ef8c6f48cd
17321,Central,16,5,4,NA,1000,200,B,B,TRUE,150.738999976194,611e283064ad72ef8c6f48cd
17321,Central,17,5,4,NA,1800,400,B,B,TRUE,152.6269999285,611e283064ad72ef8c6f48cd
17321,Central,18,5,1,NA,1000,50,B,B,TRUE,535.697999904631,611e283064ad72ef8c6f48cd
17321,Central,19,5,1,NA,600,200,P,B,FALSE,377.729999952368,611e283064ad72ef8c6f48cd
17321,Central,20,5,2,NA,1400,400,P,R,FALSE,257.050999928499,611e283064ad72ef8c6f48cd
17321,Central,21,5,1,NA,1000,50,P,P,TRUE,425.888999952353,611e283064ad72ef8c6f48cd
17321,Central,22,5,1,NA,1800,400,R,P,FALSE,173.302999928477,611e283064ad72ef8c6f48cd
17321,Central,23,5,3,NA,200,50,R,P,FALSE,1489.41899992852,611e283064ad72ef8c6f48cd
17321,Central,24,5,3,NA,1800,50,R,B,FALSE,320.814999999944,611e283064ad72ef8c6f48cd
17321,Central,25,5,2,NA,1000,200,P,B,FALSE,156.060999999987,611e283064ad72ef8c6f48cd
17321,Central,26,5,3,NA,1400,200,P,R,FALSE,194.002999928431,611e283064ad72ef8c6f48cd
17321,Central,27,5,4,NA,1400,200,R,P,FALSE,159.642999928445,611e283064ad72ef8c6f48cd
17321,Central,28,5,4,NA,600,200,R,B,FALSE,442.614999976126,611e283064ad72ef8c6f48cd
17321,Central,29,5,1,NA,600,200,B,B,TRUE,234.822999928496,611e283064ad72ef8c6f48cd
17321,Central,30,5,1,NA,200,200,B,P,FALSE,680.019999928423,611e283064ad72ef8c6f48cd
17321,Central,31,5,2,NA,200,50,B,R,FALSE,398.991999952355,611e283064ad72ef8c6f48cd
17321,Central,32,5,3,NA,1000,50,P,P,TRUE,277.143999952357,611e283064ad72ef8c6f48cd
17321,Central,33,5,2,NA,600,200,B,B,TRUE,332.699999976205,611e283064ad72ef8c6f48cd
17321,Central,34,5,1,NA,1000,50,R,R,TRUE,314.644999976153,611e283064ad72ef8c6f48cd
17321,Central,35,5,4,NA,600,200,B,R,FALSE,213.12199995236,611e283064ad72ef8c6f48cd
17321,Central,36,5,3,NA,1400,50,P,P,TRUE,357.573999976157,611e283064ad72ef8c6f48cd
17321,Central,37,5,3,NA,1000,400,P,B,FALSE,136.177999952342,611e283064ad72ef8c6f48cd
17321,Central,38,5,4,NA,1000,200,P,B,FALSE,193.062000000034,611e283064ad72ef8c6f48cd
17321,Central,39,5,2,NA,200,400,P,B,FALSE,306.867999976152,611e283064ad72ef8c6f48cd
17321,Central,40,5,4,NA,1000,200,R,B,FALSE,709.03399997612,611e283064ad72ef8c6f48cd
17321,Central,41,5,2,NA,600,50,P,B,FALSE,145.133999952348,611e283064ad72ef8c6f48cd
17321,Central,42,5,4,NA,1000,50,P,B,FALSE,344.799999928451,611e283064ad72ef8c6f48cd
17321,Central,43,5,1,NA,1800,200,B,B,TRUE,135.958999904688,611e283064ad72ef8c6f48cd
17321,Central,44,5,4,NA,200,200,R,R,TRUE,153.940999928513,611e283064ad72ef8c6f48cd
17321,Central,45,5,4,NA,200,400,R,B,FALSE,118.118999999948,611e283064ad72ef8c6f48cd
17321,Central,46,5,3,NA,600,400,P,B,FALSE,212.870999904582,611e283064ad72ef8c6f48cd
17321,Central,47,5,1,NA,200,50,R,P,FALSE,656.222999976133,611e283064ad72ef8c6f48cd
17321,Central,48,5,4,NA,1400,50,P,R,FALSE,250.793999928515,611e283064ad72ef8c6f48cd
17321,Central,49,5,1,NA,200,400,R,B,FALSE,176.216000000015,611e283064ad72ef8c6f48cd
17321,Central,50,5,4,NA,1800,50,B,B,TRUE,261.916999976151,611e283064ad72ef8c6f48cd
17321,Central,51,5,1,NA,200,50,B,P,FALSE,812.97399992845,611e283064ad72ef8c6f48cd
17321,Central,52,5,1,NA,1400,50,R,P,FALSE,416.287999976194,611e283064ad72ef8c6f48cd
17321,Central,53,5,2,NA,600,50,R,P,FALSE,405.846999952337,611e283064ad72ef8c6f48cd
17321,Central,54,5,2,NA,1400,200,R,B,FALSE,308.763999904739,611e283064ad72ef8c6f48cd
17321,Central,55,5,4,NA,1000,400,B,R,FALSE,283.027999928454,611e283064ad72ef8c6f48cd
17321,Central,56,5,1,NA,1800,400,B,B,TRUE,245.573999928543,611e283064ad72ef8c6f48cd
17321,Central,57,5,3,NA,200,400,P,B,FALSE,738.039000000106,611e283064ad72ef8c6f48cd
17321,Central,58,5,1,NA,1000,200,P,B,FALSE,289.844999999972,611e283064ad72ef8c6f48cd
17321,Central,59,5,2,NA,1800,400,P,B,FALSE,436.199999976205,611e283064ad72ef8c6f48cd
17321,Central,60,5,3,NA,1800,400,R,B,FALSE,366.388999999966,611e283064ad72ef8c6f48cd
17321,Central,61,5,1,NA,600,50,B,B,TRUE,531.284999952419,611e283064ad72ef8c6f48cd
17321,Central,62,5,2,NA,1400,50,R,B,FALSE,265.297999904724,611e283064ad72ef8c6f48cd
17321,Central,63,5,4,NA,600,50,P,P,TRUE,328.027999999933,611e283064ad72ef8c6f48cd
17321,Central,64,5,2,NA,1800,50,P,B,FALSE,206.260999904713,611e283064ad72ef8c6f48cd
17321,Central,65,5,2,NA,600,400,R,B,FALSE,408.750999976182,611e283064ad72ef8c6f48cd
17321,Central,66,5,3,NA,200,50,P,B,FALSE,448.148999976227,611e283064ad72ef8c6f48cd
17321,Central,67,5,3,NA,600,50,B,B,TRUE,424.281999952393,611e283064ad72ef8c6f48cd
17321,Central,68,5,2,NA,1800,200,P,B,FALSE,288.024999952409,611e283064ad72ef8c6f48cd
17321,Central,69,5,4,NA,600,400,R,B,FALSE,451.479999976233,611e283064ad72ef8c6f48cd
17321,Central,70,5,4,NA,1400,200,P,B,FALSE,233.593999976059,611e283064ad72ef8c6f48cd
17321,Central,71,5,3,NA,200,200,R,B,FALSE,586.335999904666,611e283064ad72ef8c6f48cd
17321,Central,72,5,2,NA,600,400,P,B,FALSE,195.527999999933,611e283064ad72ef8c6f48cd
17321,Central,73,5,4,NA,1000,50,B,B,TRUE,152.09899997618,611e283064ad72ef8c6f48cd
17321,Central,74,5,2,NA,1000,50,P,R,FALSE,208.564999928465,611e283064ad72ef8c6f48cd
17321,Central,75,5,1,NA,1400,50,B,B,TRUE,179.387999976054,611e283064ad72ef8c6f48cd
17321,Central,76,5,4,NA,200,400,P,B,FALSE,807.676999999909,611e283064ad72ef8c6f48cd
17321,Central,77,5,4,NA,1800,200,R,B,FALSE,292.861999928486,611e283064ad72ef8c6f48cd
17321,Central,78,5,3,NA,200,200,P,B,FALSE,335.488999976078,611e283064ad72ef8c6f48cd
17321,Central,79,5,3,NA,1000,50,B,B,TRUE,279.748999952339,611e283064ad72ef8c6f48cd
17321,Central,80,5,3,NA,200,50,B,B,TRUE,306.294999952428,611e283064ad72ef8c6f48cd
17321,Central,81,5,1,NA,1800,50,P,B,FALSE,653.352999976138,611e283064ad72ef8c6f48cd
17321,Central,82,5,4,NA,1800,50,P,R,FALSE,341.875999928452,611e283064ad72ef8c6f48cd
17321,Central,83,5,1,NA,200,200,R,P,FALSE,656.918999999994,611e283064ad72ef8c6f48cd
17321,Central,84,5,4,NA,600,50,B,B,TRUE,502.306999904569,611e283064ad72ef8c6f48cd
17321,Central,85,5,2,NA,1000,50,B,B,TRUE,514.347000000067,611e283064ad72ef8c6f48cd
17321,Central,86,5,1,NA,1000,400,B,P,FALSE,266.574999904726,611e283064ad72ef8c6f48cd
17321,Central,87,5,2,NA,1800,50,R,B,FALSE,441.951999952318,611e283064ad72ef8c6f48cd
17321,Central,88,5,3,NA,1400,50,B,P,FALSE,268.845999976154,611e283064ad72ef8c6f48cd
17321,Central,89,5,1,NA,1800,400,P,B,FALSE,336.978999928571,611e283064ad72ef8c6f48cd
17321,Central,90,5,3,NA,200,200,B,R,FALSE,683.287999928463,611e283064ad72ef8c6f48cd
17321,Central,91,5,3,NA,600,400,R,B,FALSE,368.080999904545,611e283064ad72ef8c6f48cd
17321,Central,92,5,4,NA,1000,50,R,B,FALSE,177.884999904549,611e283064ad72ef8c6f48cd
17321,Central,93,5,4,NA,200,400,B,B,TRUE,203.142999952426,611e283064ad72ef8c6f48cd
17321,Central,94,5,2,NA,1000,200,R,R,TRUE,371.311999952421,611e283064ad72ef8c6f48cd
17321,Central,95,5,4,NA,1000,400,P,B,FALSE,200.537999999942,611e283064ad72ef8c6f48cd
17321,Central,96,5,3,NA,1000,200,B,B,TRUE,279.456999999937,611e283064ad72ef8c6f48cd
17321,Central,97,5,1,NA,200,50,P,B,FALSE,444.715999928536,611e283064ad72ef8c6f48cd
17321,Central,98,5,2,NA,600,400,B,R,FALSE,508.026999928523,611e283064ad72ef8c6f48cd
17321,Central,99,5,2,NA,600,200,P,R,FALSE,284.742999952286,611e283064ad72ef8c6f48cd
17321,Central,100,5,3,NA,1000,200,P,B,FALSE,303.728999976069,611e283064ad72ef8c6f48cd
17321,Central,101,5,2,NA,600,200,R,B,FALSE,708.398999952246,611e283064ad72ef8c6f48cd
17321,Central,102,5,1,NA,1000,200,R,R,TRUE,342.095999999903,611e283064ad72ef8c6f48cd
17321,Central,103,5,3,NA,600,200,B,R,FALSE,214.297999952221,611e283064ad72ef8c6f48cd
17321,Central,104,5,3,NA,1000,400,B,B,TRUE,373.153999952367,611e283064ad72ef8c6f48cd
17321,Central,105,5,2,NA,1400,200,P,R,FALSE,314.747999999905,611e283064ad72ef8c6f48cd
17321,Central,106,5,2,NA,200,50,R,B,FALSE,618.496999952244,611e283064ad72ef8c6f48cd
17321,Central,107,5,2,NA,1400,200,B,B,TRUE,155.826999904588,611e283064ad72ef8c6f48cd
17321,Central,108,5,4,NA,1800,50,R,R,TRUE,169.425999928499,611e283064ad72ef8c6f48cd
17321,Central,109,5,4,NA,1800,400,P,B,FALSE,458.307999904733,611e283064ad72ef8c6f48cd
17321,Central,110,5,4,NA,600,400,P,B,FALSE,373.510999928461,611e283064ad72ef8c6f48cd
17321,Central,111,5,3,NA,1800,200,R,B,FALSE,145.32299997611,611e283064ad72ef8c6f48cd
17321,Central,112,5,3,NA,1800,50,P,B,FALSE,242.527000000002,611e283064ad72ef8c6f48cd
17321,Central,113,5,2,NA,1800,400,R,R,TRUE,137.209999976214,611e283064ad72ef8c6f48cd
17321,Central,114,5,4,NA,200,50,P,B,FALSE,617.242999976268,611e283064ad72ef8c6f48cd
17321,Central,115,5,3,NA,1000,50,R,B,FALSE,178.017999928445,611e283064ad72ef8c6f48cd
17321,Central,116,5,2,NA,1800,400,B,B,TRUE,102.038999952376,611e283064ad72ef8c6f48cd
17321,Central,117,5,3,NA,1400,400,P,R,FALSE,382.56299992837,611e283064ad72ef8c6f48cd
17321,Central,118,5,2,NA,1800,200,R,B,FALSE,124.540999999968,611e283064ad72ef8c6f48cd
17321,Central,119,5,3,NA,1800,200,B,R,FALSE,255.894000000088,611e283064ad72ef8c6f48cd
17321,Central,120,5,2,NA,1400,50,B,P,FALSE,333.657999904593,611e283064ad72ef8c6f48cd
17321,Central,121,5,1,NA,1800,50,R,B,FALSE,69.4139999046456,611e283064ad72ef8c6f48cd
17321,Central,122,5,4,NA,600,50,R,P,FALSE,809.857999952277,611e283064ad72ef8c6f48cd
17321,Central,123,5,3,NA,600,200,R,B,FALSE,242.679000000004,611e283064ad72ef8c6f48cd
17321,Central,124,5,1,NA,600,400,P,P,TRUE,264.435999952257,611e283064ad72ef8c6f48cd
17321,Central,125,5,2,NA,1000,50,R,B,FALSE,352.530000000028,611e283064ad72ef8c6f48cd
17321,Central,126,5,4,NA,600,400,B,B,TRUE,309.770999952219,611e283064ad72ef8c6f48cd
17321,Central,127,5,3,NA,600,50,R,P,FALSE,236.65099990461,611e283064ad72ef8c6f48cd
17321,Central,128,5,2,NA,1000,400,P,B,FALSE,86.5099999045487,611e283064ad72ef8c6f48cd
17321,Central,129,5,3,NA,1400,400,R,B,FALSE,301.984999952372,611e283064ad72ef8c6f48cd
17321,Central,130,5,1,NA,1400,200,B,B,TRUE,182.058999928413,611e283064ad72ef8c6f48cd
17321,Central,131,5,4,NA,200,200,P,R,FALSE,352.460999976145,611e283064ad72ef8c6f48cd
17321,Central,132,5,1,NA,1400,50,P,B,FALSE,413.92699992843,611e283064ad72ef8c6f48cd
17321,Central,133,5,3,NA,600,400,B,B,TRUE,225.833999952301,611e283064ad72ef8c6f48cd
17321,Central,134,5,1,NA,1400,200,R,B,FALSE,179.630999952322,611e283064ad72ef8c6f48cd
17321,Central,135,5,4,NA,1400,400,B,P,FALSE,142.788999976125,611e283064ad72ef8c6f48cd
17321,Central,136,5,1,NA,1000,400,P,B,FALSE,270.756999999983,611e283064ad72ef8c6f48cd
17321,Central,137,5,1,NA,600,400,B,P,FALSE,245.300999928499,611e283064ad72ef8c6f48cd
17321,Central,138,5,3,NA,1400,200,B,P,FALSE,143.554000000004,611e283064ad72ef8c6f48cd
17321,Central,139,5,4,NA,1000,400,R,P,FALSE,277.663999952376,611e283064ad72ef8c6f48cd
17321,Central,140,5,2,NA,200,400,R,P,FALSE,427.768999976106,611e283064ad72ef8c6f48cd
17321,Central,141,5,3,NA,1400,50,R,P,FALSE,359.904999928549,611e283064ad72ef8c6f48cd
17321,Central,142,5,1,NA,1400,400,R,P,FALSE,273.461999928579,611e283064ad72ef8c6f48cd
17321,Central,143,5,1,NA,600,50,R,P,FALSE,529.705999976257,611e283064ad72ef8c6f48cd
17321,Central,144,5,4,NA,200,50,R,P,FALSE,675.298999904655,611e283064ad72ef8c6f48cd
17321,Central,145,5,2,NA,200,400,B,P,FALSE,345.917999904603,611e283064ad72ef8c6f48cd
17321,Central,146,5,2,NA,200,200,B,P,FALSE,280.068999976153,611e283064ad72ef8c6f48cd
17321,Central,147,5,2,NA,1400,50,P,P,TRUE,367.229999904521,611e283064ad72ef8c6f48cd
17321,Central,148,5,1,NA,1000,200,B,P,FALSE,159.113999976078,611e283064ad72ef8c6f48cd
17321,Central,149,5,3,NA,1000,400,R,P,FALSE,342.63499992853,611e283064ad72ef8c6f48cd
17321,Central,150,5,4,NA,1400,50,B,B,TRUE,228.472999976249,611e283064ad72ef8c6f48cd
17321,Central,151,5,4,NA,1400,200,B,B,TRUE,147.23399992846,611e283064ad72ef8c6f48cd
17321,Central,152,5,4,NA,1400,50,R,B,FALSE,973.341999904718,611e283064ad72ef8c6f48cd
17321,Central,153,5,3,NA,1800,400,B,B,TRUE,227.148000000045,611e283064ad72ef8c6f48cd
17321,Central,154,5,2,NA,200,200,P,B,FALSE,493.564999952214,611e283064ad72ef8c6f48cd
17321,Central,155,5,3,NA,200,400,B,B,TRUE,393.321999976179,611e283064ad72ef8c6f48cd
17321,Central,156,5,3,NA,600,200,P,B,FALSE,458.826999976067,611e283064ad72ef8c6f48cd
17321,Central,157,5,3,NA,1000,200,R,B,FALSE,202.084999928484,611e283064ad72ef8c6f48cd
17321,Central,158,5,3,NA,600,50,P,B,FALSE,214.331999928458,611e283064ad72ef8c6f48cd
17321,Central,159,5,3,NA,1800,50,B,B,TRUE,161.519000000088,611e283064ad72ef8c6f48cd
17321,Central,160,5,1,NA,1000,400,R,R,TRUE,519.939999952214,611e283064ad72ef8c6f48cd
17321,Central,161,5,2,NA,1800,200,B,R,FALSE,132.161999904551,611e283064ad72ef8c6f48cd
17321,Central,162,5,1,NA,600,50,P,R,FALSE,242.857999952277,611e283064ad72ef8c6f48cd
17321,Central,163,5,4,NA,1400,400,P,R,FALSE,148.839999904623,611e283064ad72ef8c6f48cd
17321,Central,164,5,2,NA,1000,200,B,B,TRUE,436.532999904593,611e283064ad72ef8c6f48cd
17321,Central,165,5,1,NA,200,400,B,P,FALSE,235.113999928581,611e283064ad72ef8c6f48cd
17321,Central,166,5,2,NA,1400,400,R,P,FALSE,388.89499992854,611e283064ad72ef8c6f48cd
17321,Central,167,5,4,NA,1800,200,P,P,TRUE,164.493999928469,611e283064ad72ef8c6f48cd
17321,Central,168,5,4,NA,1800,400,R,P,FALSE,98.617999976268,611e283064ad72ef8c6f48cd
17321,Central,169,5,1,NA,200,400,P,P,TRUE,471.721999952337,611e283064ad72ef8c6f48cd
17321,Central,170,5,1,NA,1400,400,P,P,TRUE,165.388999928487,611e283064ad72ef8c6f48cd
17321,Central,171,5,2,NA,200,200,R,B,FALSE,233.474999952363,611e283064ad72ef8c6f48cd
17321,Central,172,5,4,NA,200,50,B,B,TRUE,211.250999904703,611e283064ad72ef8c6f48cd
17321,Central,173,5,4,NA,1800,200,B,B,TRUE,253.815999904647,611e283064ad72ef8c6f48cd
17321,Central,174,5,2,NA,1000,400,R,B,FALSE,403.885000000009,611e283064ad72ef8c6f48cd
17321,Central,175,5,3,NA,1800,400,P,R,FALSE,365.397999976063,611e283064ad72ef8c6f48cd
17321,Central,176,5,4,NA,1400,400,R,P,FALSE,435.134999952279,611e283064ad72ef8c6f48cd
17321,Central,177,5,1,NA,1400,400,B,P,FALSE,297.564999952214,611e283064ad72ef8c6f48cd
17321,Central,178,5,4,NA,200,200,B,P,FALSE,673.341000000015,611e283064ad72ef8c6f48cd
17321,Central,179,5,1,NA,1400,200,P,R,FALSE,210.018999952357,611e283064ad72ef8c6f48cd
17321,Central,180,5,1,NA,200,200,P,B,FALSE,221.4949999284,611e283064ad72ef8c6f48cd
17318,Colour,0,5,3,NA,1800,400,P,R,FALSE,6539.8180000023,6109d7e2b359885223296d05
17318,Colour,0,5,3,NA,600,400,R,R,TRUE,3689.6689999993,6109d7e2b359885223296d05
17318,Colour,0,5,3,NA,1800,50,P,R,FALSE,4379.74299999932,6109d7e2b359885223296d05
17318,Colour,0,5,3,NA,200,400,P,P,TRUE,2590.9430000016,6109d7e2b359885223296d05
17318,Colour,0,5,4,NA,1800,200,R,B,FALSE,7271.78300000075,6109d7e2b359885223296d05
17318,Colour,0,5,4,NA,1000,400,P,R,FALSE,1625.76900000218,6109d7e2b359885223296d05
17318,Colour,0,5,1,NA,1800,400,P,B,FALSE,2950.6520000014,6109d7e2b359885223296d05
17318,Colour,0,5,2,NA,200,50,R,R,TRUE,2096.63800000143,6109d7e2b359885223296d05
17318,Colour,0,5,3,NA,200,50,P,P,TRUE,2311.73800000083,6109d7e2b359885223296d05
17318,Colour,0,5,3,NA,1400,200,R,B,FALSE,1869.02600000007,6109d7e2b359885223296d05
17318,Colour,1,5,1,NA,1800,50,P,R,FALSE,1834.70700000157,6109d7e2b359885223296d05
17318,Colour,2,5,4,NA,200,50,R,B,FALSE,1832.38100000075,6109d7e2b359885223296d05
17318,Colour,3,5,3,NA,600,400,P,P,TRUE,842.918999999994,6109d7e2b359885223296d05
17318,Colour,4,5,1,NA,1000,200,R,R,TRUE,974.039000001503,6109d7e2b359885223296d05
17318,Colour,5,5,1,NA,600,400,B,P,FALSE,706.475000002189,6109d7e2b359885223296d05
17318,Colour,6,5,4,NA,1000,400,B,R,FALSE,1361.51700000069,6109d7e2b359885223296d05
17318,Colour,7,5,1,NA,1800,200,R,R,TRUE,696.757000000682,6109d7e2b359885223296d05
17318,Colour,8,5,2,NA,1000,400,B,P,FALSE,482.435000000056,6109d7e2b359885223296d05
17318,Colour,9,5,4,NA,600,400,B,B,TRUE,438.685000000754,6109d7e2b359885223296d05
17318,Colour,10,5,1,NA,1400,50,B,B,TRUE,588.110999999335,6109d7e2b359885223296d05
17318,Colour,11,5,2,NA,1800,50,R,B,FALSE,1420.79900000221,6109d7e2b359885223296d05
17318,Colour,12,5,1,NA,1000,200,B,B,TRUE,1815.66300000157,6109d7e2b359885223296d05
17318,Colour,13,5,4,NA,1000,200,R,R,TRUE,913.557999999961,6109d7e2b359885223296d05
17318,Colour,14,5,1,NA,1400,400,R,P,FALSE,829.891999999993,6109d7e2b359885223296d05
17318,Colour,15,5,4,NA,1000,50,B,P,FALSE,1051.89199999929,6109d7e2b359885223296d05
17318,Colour,16,5,3,NA,1000,400,B,R,FALSE,855.591000001412,6109d7e2b359885223296d05
17318,Colour,17,5,4,NA,1000,200,P,R,FALSE,658.031000002287,6109d7e2b359885223296d05
17318,Colour,18,5,4,NA,600,50,P,B,FALSE,1793.15100000077,6109d7e2b359885223296d05
17318,Colour,19,5,4,NA,200,200,P,B,FALSE,2996.19899999932,6109d7e2b359885223296d05
17318,Colour,20,5,3,NA,1400,400,B,P,FALSE,618.515000001527,6109d7e2b359885223296d05
17318,Colour,21,5,1,NA,1800,200,B,R,FALSE,1490.86699999915,6109d7e2b359885223296d05
17318,Colour,22,5,4,NA,1800,400,R,P,FALSE,711.27300000214,6109d7e2b359885223296d05
17318,Colour,23,5,1,NA,1800,50,R,B,FALSE,1845.14200000232,6109d7e2b359885223296d05
17318,Colour,24,5,2,NA,1800,200,B,P,FALSE,2890.45399999991,6109d7e2b359885223296d05
17318,Colour,25,5,4,NA,200,200,B,R,FALSE,18848.6690000007,6109d7e2b359885223296d05
17318,Colour,26,5,1,NA,1000,400,R,P,FALSE,6085.37300000223,6109d7e2b359885223296d05
17318,Colour,27,5,2,NA,200,200,B,R,FALSE,1366.40800000215,6109d7e2b359885223296d05
17318,Colour,28,5,3,NA,1800,200,P,B,FALSE,1035.96800000151,6109d7e2b359885223296d05
17318,Colour,29,5,1,NA,1000,50,P,P,TRUE,1212.94200000144,6109d7e2b359885223296d05
17318,Colour,30,5,3,NA,1000,400,P,P,TRUE,1210.69400000083,6109d7e2b359885223296d05
17318,Colour,31,5,4,NA,1000,400,P,B,FALSE,1180.6220000023,6109d7e2b359885223296d05
17318,Colour,32,5,2,NA,200,50,R,R,TRUE,1335.93600000138,6109d7e2b359885223296d05
17318,Colour,33,5,3,NA,1400,50,B,B,TRUE,902.92700000084,6109d7e2b359885223296d05
17318,Colour,34,5,1,NA,1800,200,P,R,FALSE,891.935000000754,6109d7e2b359885223296d05
17318,Colour,35,5,2,NA,600,400,R,P,FALSE,777.114000001457,6109d7e2b359885223296d05
17318,Colour,36,5,3,NA,1400,400,P,B,FALSE,1173.41200000234,6109d7e2b359885223296d05
17318,Colour,37,5,3,NA,600,400,B,P,FALSE,492.724000002258,6109d7e2b359885223296d05
17318,Colour,38,5,3,NA,600,200,B,P,FALSE,1241.77200000151,6109d7e2b359885223296d05
17318,Colour,39,5,3,NA,1400,200,B,P,FALSE,1560.44400000153,6109d7e2b359885223296d05
17318,Colour,40,5,4,NA,600,50,B,R,FALSE,841.489999999991,6109d7e2b359885223296d05
17318,Colour,41,5,1,NA,200,200,P,R,FALSE,1024.20000000158,6109d7e2b359885223296d05
17318,Colour,42,5,1,NA,1400,400,P,P,TRUE,1049.87000000151,6109d7e2b359885223296d05
17318,Colour,43,5,3,NA,200,400,B,P,FALSE,740.162000001408,6109d7e2b359885223296d05
17318,Colour,44,5,3,NA,1800,400,R,R,TRUE,1521.03400000231,6109d7e2b359885223296d05
17318,Colour,45,5,4,NA,600,200,P,R,FALSE,1170.75200000079,6109d7e2b359885223296d05
17318,Colour,46,5,2,NA,600,50,R,B,FALSE,1093.68200000143,6109d7e2b359885223296d05
17318,Colour,47,5,1,NA,1800,400,P,P,TRUE,1184.50499999989,6109d7e2b359885223296d05
17318,Colour,48,5,3,NA,1800,400,B,B,TRUE,1023.3310000007,6109d7e2b359885223296d05
17318,Colour,49,5,4,NA,600,50,R,B,FALSE,1621.08900000155,6109d7e2b359885223296d05
17318,Colour,50,5,2,NA,1400,50,P,R,FALSE,1129.08400000003,6109d7e2b359885223296d05
17318,Colour,51,5,4,NA,600,400,R,R,TRUE,1228.19400000083,6109d7e2b359885223296d05
17318,Colour,52,5,1,NA,600,50,R,P,FALSE,1410.16700000153,6109d7e2b359885223296d05
17318,Colour,53,5,4,NA,1800,400,P,R,FALSE,1173.53500000155,6109d7e2b359885223296d05
17318,Colour,54,5,3,NA,200,200,R,R,TRUE,472.655000001425,6109d7e2b359885223296d05
17318,Colour,55,5,2,NA,200,400,R,R,TRUE,525.781000002287,6109d7e2b359885223296d05
17318,Colour,56,5,1,NA,1400,200,B,B,TRUE,924.591000002343,6109d7e2b359885223296d05
17318,Colour,57,5,1,NA,600,200,B,P,FALSE,1283.05100000231,6109d7e2b359885223296d05
17318,Colour,58,5,4,NA,1400,400,P,B,FALSE,671.490000001388,6109d7e2b359885223296d05
17318,Colour,59,5,1,NA,1000,50,R,R,TRUE,1056.61800000141,6109d7e2b359885223296d05
17318,Colour,60,5,3,NA,600,400,R,R,TRUE,383.624000000767,6109d7e2b359885223296d05
17318,Colour,61,5,3,NA,1400,400,R,R,TRUE,232.163000001572,6109d7e2b359885223296d05
17318,Colour,62,5,1,NA,1400,400,B,R,FALSE,835.835000000661,6109d7e2b359885223296d05
17318,Colour,63,5,4,NA,1400,200,B,P,FALSE,669.157000000821,6109d7e2b359885223296d05
17318,Colour,64,5,3,NA,200,50,P,R,FALSE,1126.75400000159,6109d7e2b359885223296d05
17318,Colour,65,5,1,NA,1800,400,R,P,FALSE,107.711999999359,6109d7e2b359885223296d05
17318,Colour,66,5,2,NA,1800,50,B,B,TRUE,379.382000002312,6109d7e2b359885223296d05
17318,Colour,67,5,3,NA,200,400,P,R,FALSE,953.513000001432,6109d7e2b359885223296d05
17318,Colour,68,5,4,NA,1400,400,B,B,TRUE,739.749000000069,6109d7e2b359885223296d05
17318,Colour,69,5,3,NA,600,50,P,R,FALSE,359.263000002131,6109d7e2b359885223296d05
17318,Colour,70,5,3,NA,1400,200,P,B,FALSE,605.063000002177,6109d7e2b359885223296d05
17318,Colour,71,5,3,NA,200,50,B,P,FALSE,1258.02100000158,6109d7e2b359885223296d05
17318,Colour,72,5,1,NA,1800,400,B,R,FALSE,1.01700000232086,6109d7e2b359885223296d05
17318,Colour,73,5,3,NA,1400,200,R,R,TRUE,255.769000000786,6109d7e2b359885223296d05
17318,Colour,74,5,2,NA,600,200,P,R,FALSE,267.736999999965,6109d7e2b359885223296d05
17318,Colour,75,5,2,NA,1000,50,B,P,FALSE,913.747000002302,6109d7e2b359885223296d05
17318,Colour,76,5,4,NA,1800,50,B,B,TRUE,536.35000000149,6109d7e2b359885223296d05
17318,Colour,77,5,4,NA,1800,200,B,B,TRUE,322.242000000086,6109d7e2b359885223296d05
17318,Colour,78,5,2,NA,1400,50,B,R,FALSE,543.838000000687,6109d7e2b359885223296d05
17318,Colour,79,5,3,NA,1800,200,B,R,FALSE,510.654000000097,6109d7e2b359885223296d05
17318,Colour,80,5,1,NA,200,400,R,P,FALSE,49.2899999993388,6109d7e2b359885223296d05
17318,Colour,81,5,2,NA,1400,200,R,R,TRUE,769.014000000665,6109d7e2b359885223296d05
17318,Colour,82,5,2,NA,600,50,B,R,FALSE,716.728000002215,6109d7e2b359885223296d05
17318,Colour,83,5,1,NA,600,50,B,B,TRUE,750.898000000045,6109d7e2b359885223296d05
17318,Colour,84,5,2,NA,1800,200,P,B,FALSE,264.166000001598,6109d7e2b359885223296d05
17318,Colour,85,5,3,NA,1000,50,R,R,TRUE,381.375999999233,6109d7e2b359885223296d05
17318,Colour,86,5,4,NA,1400,400,R,P,FALSE,575.916999999899,6109d7e2b359885223296d05
17318,Colour,87,5,1,NA,1000,50,B,P,FALSE,768.77300000214,6109d7e2b359885223296d05
17318,Colour,88,5,4,NA,1000,200,B,P,FALSE,727.909000002313,6109d7e2b359885223296d05
17318,Colour,89,5,4,NA,1400,50,R,P,FALSE,10973.5560000022,6109d7e2b359885223296d05
17318,Colour,90,5,4,NA,1400,50,P,P,TRUE,3991.02300000074,6109d7e2b359885223296d05
17318,Colour,91,5,2,NA,1000,200,B,R,FALSE,1843.15700000152,6109d7e2b359885223296d05
17318,Colour,92,5,3,NA,200,200,P,P,TRUE,1237.27100000228,6109d7e2b359885223296d05
17318,Colour,93,5,2,NA,1000,200,P,P,TRUE,2009.73099999991,6109d7e2b359885223296d05
17318,Colour,94,5,3,NA,600,50,R,B,FALSE,7915.59499999927,6109d7e2b359885223296d05
17318,Colour,95,5,1,NA,1000,200,P,R,FALSE,812.273000001442,6109d7e2b359885223296d05
17318,Colour,96,5,1,NA,1000,400,P,R,FALSE,334.553000002168,6109d7e2b359885223296d05
17318,Colour,97,5,4,NA,600,400,P,R,FALSE,1571.36500000139,6109d7e2b359885223296d05
17318,Colour,98,5,3,NA,1400,50,R,P,FALSE,609.339999999152,6109d7e2b359885223296d05
17318,Colour,99,5,1,NA,600,200,P,P,TRUE,1417.75600000005,6109d7e2b359885223296d05
17318,Colour,100,5,2,NA,1400,400,P,B,FALSE,1303.82499999925,6109d7e2b359885223296d05
17318,Colour,101,5,1,NA,200,200,B,P,FALSE,1070.05100000068,6109d7e2b359885223296d05
17318,Colour,102,5,1,NA,200,400,P,R,FALSE,56.9770000015851,6109d7e2b359885223296d05
17318,Colour,103,5,4,NA,1800,200,P,R,FALSE,1779.41700000223,6109d7e2b359885223296d05
17318,Colour,104,5,2,NA,200,400,P,P,TRUE,1442.19800000079,6109d7e2b359885223296d05
17318,Colour,105,5,3,NA,1800,400,P,B,FALSE,945.668000002159,6109d7e2b359885223296d05
17318,Colour,106,5,4,NA,200,400,R,P,FALSE,1909.55799999996,6109d7e2b359885223296d05
17318,Colour,107,5,4,NA,1800,200,R,R,TRUE,468.249000001466,6109d7e2b359885223296d05
17318,Colour,108,5,2,NA,1000,50,R,B,FALSE,1125.80099999928,6109d7e2b359885223296d05
17318,Colour,109,5,2,NA,600,50,P,B,FALSE,1182.59899999993,6109d7e2b359885223296d05
17318,Colour,110,5,3,NA,1800,50,R,R,TRUE,609.14499999932,6109d7e2b359885223296d05
17318,Colour,111,5,2,NA,600,200,R,P,FALSE,2489.35900000064,6109d7e2b359885223296d05
17318,Colour,112,5,3,NA,1000,50,P,R,FALSE,494.756000000751,6109d7e2b359885223296d05
17318,Colour,113,5,2,NA,1000,200,R,R,TRUE,276.182000001427,6109d7e2b359885223296d05
17318,Colour,114,5,3,NA,600,200,R,P,FALSE,2226.45000000158,6109d7e2b359885223296d05
17318,Colour,115,5,1,NA,600,400,R,P,FALSE,165.388000002131,6109d7e2b359885223296d05
17318,Colour,116,5,1,NA,1400,50,R,B,FALSE,400.777999999933,6109d7e2b359885223296d05
17318,Colour,117,5,1,NA,200,50,B,P,FALSE,1369.02799999993,6109d7e2b359885223296d05
17318,Colour,118,5,1,NA,1400,50,P,R,FALSE,330.217999999179,6109d7e2b359885223296d05
17318,Colour,119,5,3,NA,1000,200,R,P,FALSE,395.238000001526,6109d7e2b359885223296d05
17318,Colour,120,5,2,NA,200,200,P,P,TRUE,780.028000000631,6109d7e2b359885223296d05
17318,Colour,121,5,2,NA,200,50,P,P,TRUE,757.560000002151,6109d7e2b359885223296d05
17318,Colour,122,5,4,NA,1400,200,R,B,FALSE,1256.77000000142,6109d7e2b359885223296d05
17318,Colour,123,5,2,NA,1800,50,P,P,TRUE,916.920000002254,6109d7e2b359885223296d05
17318,Colour,124,5,4,NA,1000,50,R,B,FALSE,798.056000002194,6109d7e2b359885223296d05
17318,Colour,125,5,4,NA,600,200,R,B,FALSE,372.36400000006,6109d7e2b359885223296d05
17318,Colour,126,5,1,NA,1400,200,R,B,FALSE,1859.03399999929,6109d7e2b359885223296d05
17318,Colour,127,5,1,NA,200,50,P,R,FALSE,518.944000000833,6109d7e2b359885223296d05
17318,Colour,128,5,1,NA,200,200,R,R,TRUE,286.507999999914,6109d7e2b359885223296d05
17318,Colour,129,5,3,NA,1000,200,B,B,TRUE,1961.22600000142,6109d7e2b359885223296d05
17318,Colour,130,5,3,NA,1000,50,B,R,FALSE,1604.50399999926,6109d7e2b359885223296d05
17318,Colour,131,5,1,NA,600,200,R,R,TRUE,385.027999999933,6109d7e2b359885223296d05
17318,Colour,132,5,2,NA,600,400,B,P,FALSE,1408.47600000002,6109d7e2b359885223296d05
17318,Colour,133,5,1,NA,600,50,P,R,FALSE,1154.48199999915,6109d7e2b359885223296d05
17318,Colour,134,5,2,NA,600,200,B,R,FALSE,265.269000000786,6109d7e2b359885223296d05
17318,Colour,135,5,1,NA,200,400,B,R,FALSE,365.895000000019,6109d7e2b359885223296d05
17318,Colour,136,5,2,NA,1400,200,P,P,TRUE,371.799000001512,6109d7e2b359885223296d05
17318,Colour,137,5,2,NA,200,400,B,P,FALSE,203.597000000766,6109d7e2b359885223296d05
17318,Colour,138,5,4,NA,1000,50,P,B,FALSE,1411.9850000001,6109d7e2b359885223296d05
17318,Colour,139,5,4,NA,600,200,B,B,TRUE,282.933000000659,6109d7e2b359885223296d05
17318,Colour,140,5,3,NA,200,200,B,R,FALSE,1109.55099999998,6109d7e2b359885223296d05
17318,Colour,141,5,2,NA,600,400,P,P,TRUE,1071.04100000067,6109d7e2b359885223296d05
17318,Colour,142,5,3,NA,1800,50,P,R,FALSE,342.483000002336,6109d7e2b359885223296d05
17318,Colour,143,5,4,NA,1400,50,B,B,TRUE,2660.21299999999,6109d7e2b359885223296d05
17318,Colour,144,5,3,NA,1000,400,R,R,TRUE,263.541000000667,6109d7e2b359885223296d05
17318,Colour,145,5,1,NA,200,50,R,R,TRUE,1235.91900000139,6109d7e2b359885223296d05
17318,Colour,146,5,4,NA,1000,400,R,B,FALSE,623.951000000816,6109d7e2b359885223296d05
17318,Colour,147,5,2,NA,1000,50,P,R,FALSE,409.432000001427,6109d7e2b359885223296d05
17318,Colour,148,5,4,NA,200,400,B,P,FALSE,1353.598,6109d7e2b359885223296d05
17318,Colour,149,5,2,NA,1000,400,R,R,TRUE,307.766000000061,6109d7e2b359885223296d05
17318,Colour,150,5,4,NA,200,200,R,P,FALSE,907.299000001512,6109d7e2b359885223296d05
17318,Colour,151,5,3,NA,1800,200,R,R,TRUE,1849.77300000214,6109d7e2b359885223296d05
17318,Colour,152,5,2,NA,1800,400,B,P,FALSE,344.1930000016,6109d7e2b359885223296d05
17318,Colour,153,5,4,NA,200,50,B,B,TRUE,1192.62300000153,6109d7e2b359885223296d05
17318,Colour,154,5,2,NA,1400,200,B,R,FALSE,960.959000001429,6109d7e2b359885223296d05
17318,Colour,155,5,2,NA,1400,400,R,P,FALSE,172.261000002269,6109d7e2b359885223296d05
17318,Colour,156,5,2,NA,1400,400,B,R,FALSE,648.952000000048,6109d7e2b359885223296d05
17318,Colour,157,5,2,NA,1800,400,P,P,TRUE,959.858000002336,6109d7e2b359885223296d05
17318,Colour,158,5,3,NA,1800,50,B,R,FALSE,546.65200000233,6109d7e2b359885223296d05
17318,Colour,159,5,2,NA,200,50,B,R,FALSE,323.375999999233,6109d7e2b359885223296d05
17318,Colour,160,5,4,NA,1800,50,R,B,FALSE,631.51999999932,6109d7e2b359885223296d05
17318,Colour,161,5,2,NA,1000,400,P,P,TRUE,354.894000001485,6109d7e2b359885223296d05
17318,Colour,162,5,4,NA,1800,400,B,B,TRUE,185.640000001527,6109d7e2b359885223296d05
17318,Colour,163,5,4,NA,1400,200,P,B,FALSE,474.604000001447,6109d7e2b359885223296d05
17318,Colour,164,5,4,NA,200,50,P,B,FALSE,461.289999999339,6109d7e2b359885223296d05
17318,Colour,165,5,1,NA,1800,50,B,R,FALSE,1116.22699999996,6109d7e2b359885223296d05
17318,Colour,166,5,3,NA,1400,50,P,P,TRUE,638.487000001594,6109d7e2b359885223296d05
17318,Colour,167,5,4,NA,200,400,P,B,FALSE,174.028999999166,6109d7e2b359885223296d05
17318,Colour,168,5,3,NA,600,200,P,P,TRUE,1087.56900000153,6109d7e2b359885223296d05
17318,Colour,169,5,1,NA,1000,400,B,R,FALSE,379.361000002129,6109d7e2b359885223296d05
17318,Colour,170,5,2,NA,1800,200,R,P,FALSE,558.780999999959,6109d7e2b359885223296d05
17318,Colour,171,5,3,NA,1000,200,P,R,FALSE,306.083000001498,6109d7e2b359885223296d05
17318,Colour,172,5,3,NA,600,50,B,R,FALSE,592.313000002177,6109d7e2b359885223296d05
17318,Colour,173,5,1,NA,1400,200,P,B,FALSE,818.92699999921,6109d7e2b359885223296d05
17318,Colour,174,5,3,NA,200,50,R,P,FALSE,3558.82200000156,6109d7e2b359885223296d05
17318,Colour,175,5,3,NA,200,400,R,R,TRUE,170.914000000805,6109d7e2b359885223296d05
17318,Colour,176,5,4,NA,1800,50,P,R,FALSE,1044.85200000159,6109d7e2b359885223296d05
17318,Colour,177,5,1,NA,600,400,P,P,TRUE,316.130000001518,6109d7e2b359885223296d05
17318,Colour,178,5,2,NA,1400,50,R,P,FALSE,706.092000001576,6109d7e2b359885223296d05
17318,Colour,179,5,2,NA,200,200,R,P,FALSE,338.528000001563,6109d7e2b359885223296d05
17318,Colour,180,5,2,NA,1800,400,R,R,TRUE,155.009000001475,6109d7e2b359885223296d05
17318,Central,0,5,1,NA,200,50,B,P,FALSE,6684.39100000146,6109d7e2b359885223296d05
17318,Central,0,5,2,NA,200,400,P,R,FALSE,205.073000001488,6109d7e2b359885223296d05
17318,Central,0,5,3,NA,1800,50,R,B,FALSE,1155.15299999993,6109d7e2b359885223296d05
17318,Central,0,5,2,NA,1800,50,P,R,FALSE,418.796999999322,6109d7e2b359885223296d05
17318,Central,0,5,1,NA,200,200,P,P,TRUE,948.861000000732,6109d7e2b359885223296d05
17318,Central,0,5,1,NA,200,200,R,P,FALSE,1420.04700000002,6109d7e2b359885223296d05
17318,Central,0,5,2,NA,600,200,R,R,TRUE,180.392999999924,6109d7e2b359885223296d05
17318,Central,0,5,3,NA,1000,200,R,P,FALSE,4639.24699999928,6109d7e2b359885223296d05
17318,Central,0,5,3,NA,600,50,R,R,TRUE,898.706000002334,6109d7e2b359885223296d05
17318,Central,0,5,4,NA,1800,200,R,R,TRUE,421.887999999337,6109d7e2b359885223296d05
17318,Central,1,5,3,NA,600,50,R,R,TRUE,799.460999999894,6109d7e2b359885223296d05
17318,Central,2,5,4,NA,1400,50,P,B,FALSE,1089.97499999916,6109d7e2b359885223296d05
17318,Central,3,5,4,NA,1800,400,P,B,FALSE,266.273999999277,6109d7e2b359885223296d05
17318,Central,4,5,4,NA,1000,50,P,B,FALSE,3163.38399999915,6109d7e2b359885223296d05
17318,Central,5,5,4,NA,1400,200,B,R,FALSE,816.000000002328,6109d7e2b359885223296d05
17318,Central,6,5,4,NA,1000,200,P,P,TRUE,1161.21699999995,6109d7e2b359885223296d05
17318,Central,7,5,3,NA,1400,50,R,R,TRUE,662.979000001447,6109d7e2b359885223296d05
17318,Central,8,5,1,NA,1800,50,B,B,TRUE,510.171000000788,6109d7e2b359885223296d05
17318,Central,9,5,1,NA,1000,50,R,P,FALSE,19901.0790000015,6109d7e2b359885223296d05
17318,Central,10,5,1,NA,1400,200,R,R,TRUE,382.794000000693,6109d7e2b359885223296d05
17318,Central,11,5,4,NA,600,50,P,R,FALSE,244.125999999233,6109d7e2b359885223296d05
17318,Central,12,5,3,NA,200,50,P,R,FALSE,824.503999999957,6109d7e2b359885223296d05
17318,Central,13,5,2,NA,200,50,R,P,FALSE,1272.20400000131,6109d7e2b359885223296d05
17318,Central,14,5,1,NA,1400,400,R,R,TRUE,195.140999999363,6109d7e2b359885223296d05
17318,Central,15,5,3,NA,1400,50,P,P,TRUE,641.833000001498,6109d7e2b359885223296d05
17318,Central,16,5,4,NA,200,50,B,R,FALSE,892.727000002284,6109d7e2b359885223296d05
17318,Central,17,5,1,NA,600,400,R,R,TRUE,209.15700000152,6109d7e2b359885223296d05
17318,Central,18,5,2,NA,600,400,P,P,TRUE,294.263000001665,6109d7e2b359885223296d05
17318,Central,19,5,3,NA,200,200,B,B,TRUE,220.851000001654,6109d7e2b359885223296d05
17318,Central,20,5,3,NA,1000,400,R,R,TRUE,221.908999999054,6109d7e2b359885223296d05
17318,Central,21,5,2,NA,1400,400,R,R,TRUE,255.931000000797,6109d7e2b359885223296d05
17318,Central,22,5,3,NA,1000,200,B,P,FALSE,737.385000000708,6109d7e2b359885223296d05
17318,Central,23,5,3,NA,1000,400,B,B,TRUE,742.361000000965,6109d7e2b359885223296d05
17318,Central,24,5,2,NA,1000,50,P,P,TRUE,658.204000001308,6109d7e2b359885223296d05
17318,Central,25,5,2,NA,200,400,B,B,TRUE,299.14600000158,6109d7e2b359885223296d05
17318,Central,26,5,2,NA,600,400,R,R,TRUE,295.32200000016,6109d7e2b359885223296d05
17318,Central,27,5,1,NA,1000,400,B,P,FALSE,100.282000000123,6109d7e2b359885223296d05
17318,Central,28,5,4,NA,1000,50,B,B,TRUE,621.970000000205,6109d7e2b359885223296d05
17318,Central,29,5,4,NA,600,400,B,R,FALSE,790.194000001531,6109d7e2b359885223296d05
17318,Central,30,5,2,NA,1800,200,R,R,TRUE,302.996000002138,6109d7e2b359885223296d05
17318,Central,31,5,4,NA,1000,200,B,P,FALSE,303.483000000007,6109d7e2b359885223296d05
17318,Central,32,5,1,NA,1000,50,B,R,FALSE,622.863000001293,6109d7e2b359885223296d05
17318,Central,33,5,1,NA,1800,400,P,B,FALSE,493.134999999311,6109d7e2b359885223296d05
17318,Central,34,5,1,NA,600,50,R,R,TRUE,1289.54799999949,6109d7e2b359885223296d05
17318,Central,35,5,1,NA,600,400,B,P,FALSE,158.031999999192,6109d7e2b359885223296d05
17318,Central,36,5,3,NA,1800,50,P,P,TRUE,474.570000001695,6109d7e2b359885223296d05
17318,Central,37,5,2,NA,600,50,R,B,FALSE,454.152000001632,6109d7e2b359885223296d05
17318,Central,38,5,3,NA,1000,400,P,P,TRUE,21.7500000023283,6109d7e2b359885223296d05
17318,Central,39,5,2,NA,1400,400,B,R,FALSE,555.41400000127,6109d7e2b359885223296d05
17318,Central,40,5,4,NA,1400,400,R,P,FALSE,169.299999999348,6109d7e2b359885223296d05
17318,Central,41,5,1,NA,200,50,P,B,FALSE,494.041999999434,6109d7e2b359885223296d05
17318,Central,42,5,2,NA,1800,400,B,P,FALSE,631.074000002351,6109d7e2b359885223296d05
17318,Central,43,5,3,NA,200,400,P,P,TRUE,723.947999999858,6109d7e2b359885223296d05
17318,Central,44,5,3,NA,600,400,R,R,TRUE,153.599000000861,6109d7e2b359885223296d05
17318,Central,45,5,3,NA,200,400,B,P,FALSE,814.888999999966,6109d7e2b359885223296d05
17318,Central,46,5,4,NA,1800,50,B,R,FALSE,729.353000000585,6109d7e2b359885223296d05
17318,Central,47,5,1,NA,1000,400,R,P,FALSE,851.207000002265,6109d7e2b359885223296d05
17318,Central,48,5,3,NA,1800,200,R,P,FALSE,922.745000001509,6109d7e2b359885223296d05
17318,Central,49,5,4,NA,200,50,P,B,FALSE,881.317000002135,6109d7e2b359885223296d05
17318,Central,50,5,1,NA,200,400,R,R,TRUE,236.920000000857,6109d7e2b359885223296d05
17318,Central,51,5,4,NA,1800,50,P,P,TRUE,1390.5959999999,6109d7e2b359885223296d05
17318,Central,52,5,4,NA,1000,200,R,R,TRUE,185.425999999978,6109d7e2b359885223296d05
17318,Central,53,5,4,NA,1800,50,R,R,TRUE,2463.3059999994,6109d7e2b359885223296d05
17318,Central,54,5,4,NA,600,50,B,P,FALSE,1840.12199999997,6109d7e2b359885223296d05
17318,Central,55,5,3,NA,600,200,R,R,TRUE,155.620000000112,6109d7e2b359885223296d05
17318,Central,56,5,2,NA,200,200,R,R,TRUE,4206.7620000001,6109d7e2b359885223296d05
17318,Central,57,5,1,NA,1400,200,P,P,TRUE,1507.12000000244,6109d7e2b359885223296d05
17318,Central,58,5,1,NA,600,200,R,R,TRUE,1047.52100000205,6109d7e2b359885223296d05
17318,Central,59,5,4,NA,1800,200,B,R,FALSE,907.035000002012,6109d7e2b359885223296d05
17318,Central,60,5,2,NA,1000,50,B,P,FALSE,1185.23700000066,6109d7e2b359885223296d05
17318,Central,61,5,1,NA,200,50,B,B,TRUE,816.340000002179,6109d7e2b359885223296d05
17318,Central,62,5,1,NA,200,400,P,P,TRUE,944.753999999259,6109d7e2b359885223296d05
17318,Central,63,5,3,NA,1400,400,B,R,FALSE,1291.35600000061,6109d7e2b359885223296d05
17318,Central,64,5,1,NA,600,200,B,R,FALSE,1178.13200000161,6109d7e2b359885223296d05
17318,Central,65,5,1,NA,600,200,P,P,TRUE,927.936000001617,6109d7e2b359885223296d05
17318,Central,66,5,2,NA,1400,50,B,B,TRUE,789.82200000016,6109d7e2b359885223296d05
17318,Central,67,5,1,NA,1000,200,R,B,FALSE,548.550000002142,6109d7e2b359885223296d05
17318,Central,68,5,4,NA,200,200,P,B,FALSE,609.38000000082,6109d7e2b359885223296d05
17318,Central,69,5,2,NA,600,200,P,B,FALSE,1716.99400000088,6109d7e2b359885223296d05
17318,Central,70,5,3,NA,1800,50,R,P,FALSE,1960.40600000136,6109d7e2b359885223296d05
17318,Central,71,5,2,NA,200,50,B,R,FALSE,836.151999999303,6109d7e2b359885223296d05
17318,Central,72,5,3,NA,600,400,P,R,FALSE,284.384000000544,6109d7e2b359885223296d05
17318,Central,73,5,4,NA,200,50,R,R,TRUE,489.336000002455,6109d7e2b359885223296d05
17318,Central,74,5,4,NA,600,50,R,B,FALSE,866.606000002008,6109d7e2b359885223296d05
17318,Central,75,5,3,NA,1800,400,P,P,TRUE,322.38599999994,6109d7e2b359885223296d05
17318,Central,76,5,1,NA,600,50,P,R,FALSE,347.550000002142,6109d7e2b359885223296d05
17318,Central,77,5,3,NA,600,50,P,P,TRUE,586.257000002079,6109d7e2b359885223296d05
17318,Central,78,5,3,NA,600,50,B,B,TRUE,833.631000000052,6109d7e2b359885223296d05
17318,Central,79,5,4,NA,600,400,R,B,FALSE,297.29499999946,6109d7e2b359885223296d05
17318,Central,80,5,3,NA,1000,50,R,B,FALSE,982.655999999028,6109d7e2b359885223296d05
17318,Central,81,5,2,NA,200,200,B,R,FALSE,415.702000000514,6109d7e2b359885223296d05
17318,Central,82,5,1,NA,1400,400,P,P,TRUE,498.91599999927,6109d7e2b359885223296d05
17318,Central,83,5,4,NA,1400,200,P,R,FALSE,511.246000002138,6109d7e2b359885223296d05
17318,Central,84,5,1,NA,200,200,P,B,FALSE,641.708000001498,6109d7e2b359885223296d05
17318,Central,85,5,3,NA,1400,200,B,B,TRUE,722.522000001278,6109d7e2b359885223296d05
17318,Central,86,5,3,NA,1400,400,R,R,TRUE,250.183000000194,6109d7e2b359885223296d05
17318,Central,87,5,1,NA,1000,200,B,P,FALSE,385.964999999851,6109d7e2b359885223296d05
17318,Central,88,5,2,NA,1800,50,R,B,FALSE,1431.87900000159,6109d7e2b359885223296d05
17318,Central,89,5,3,NA,200,50,R,R,TRUE,800.637000002433,6109d7e2b359885223296d05
17318,Central,90,5,4,NA,600,200,R,B,FALSE,588.608000000007,6109d7e2b359885223296d05
17318,Central,91,5,1,NA,1400,400,B,R,FALSE,13.5409999992698,6109d7e2b359885223296d05
17318,Central,92,5,1,NA,600,400,P,R,FALSE,253.03900000127,6109d7e2b359885223296d05
17318,Central,93,5,2,NA,1400,400,P,R,FALSE,553.21300000092,6109d7e2b359885223296d05
17318,Central,94,5,1,NA,1000,400,P,P,TRUE,732.015000000596,6109d7e2b359885223296d05
17318,Central,95,5,1,NA,600,50,B,B,TRUE,620.001999999397,6109d7e2b359885223296d05
17318,Central,96,5,2,NA,200,50,P,R,FALSE,478.1940000006,6109d7e2b359885223296d05
17318,Central,97,5,1,NA,1400,50,P,R,FALSE,434.162000000942,6109d7e2b359885223296d05
17318,Central,98,5,4,NA,1800,400,B,B,TRUE,615.420000002254,6109d7e2b359885223296d05
17318,Central,99,5,3,NA,1800,400,R,R,TRUE,1033.18999999994,6109d7e2b359885223296d05
17318,Central,100,5,1,NA,200,200,R,B,FALSE,1211.33999999939,6109d7e2b359885223296d05
17318,Central,101,5,4,NA,1000,400,R,R,TRUE,1711.04400000069,6109d7e2b359885223296d05
17318,Central,102,5,1,NA,200,50,R,P,FALSE,400.379999999888,6109d7e2b359885223296d05
17318,Central,103,5,4,NA,200,400,P,P,TRUE,125.446000000928,6109d7e2b359885223296d05
17318,Central,104,5,1,NA,1800,400,R,R,TRUE,622.283999999985,6109d7e2b359885223296d05
17318,Central,105,5,1,NA,1800,200,B,B,TRUE,1025.31399999931,6109d7e2b359885223296d05
17318,Central,106,5,3,NA,1000,50,B,B,TRUE,533.35400000168,6109d7e2b359885223296d05
17318,Central,107,5,1,NA,1000,200,P,P,TRUE,872.888999999035,6109d7e2b359885223296d05
17318,Central,108,5,4,NA,1800,400,R,P,FALSE,1817.96900000144,6109d7e2b359885223296d05
17318,Central,109,5,3,NA,600,200,P,P,TRUE,906.199000000022,6109d7e2b359885223296d05
17318,Central,110,5,3,NA,1000,50,P,R,FALSE,347.651999999303,6109d7e2b359885223296d05
17318,Central,111,5,3,NA,1400,400,P,R,FALSE,770.662000002339,6109d7e2b359885223296d05
17318,Central,112,5,1,NA,200,200,B,P,FALSE,1127.63400000148,6109d7e2b359885223296d05
17318,Central,113,5,4,NA,1400,200,R,P,FALSE,860.420999999158,6109d7e2b359885223296d05
17318,Central,114,5,4,NA,1800,200,P,P,TRUE,384.827000001445,6109d7e2b359885223296d05
17318,Central,115,5,1,NA,200,400,B,B,TRUE,383.057000002358,6109d7e2b359885223296d05
17318,Central,116,5,2,NA,1800,200,B,R,FALSE,403.093000000808,6109d7e2b359885223296d05
17318,Central,117,5,4,NA,1400,400,B,P,FALSE,837.905000000726,6109d7e2b359885223296d05
17318,Central,118,5,3,NA,200,50,B,B,TRUE,445.807000001427,6109d7e2b359885223296d05
17318,Central,119,5,1,NA,1800,200,R,B,FALSE,1965.23200000077,6109d7e2b359885223296d05
17318,Central,120,5,4,NA,200,200,B,R,FALSE,295.184000001289,6109d7e2b359885223296d05
17318,Central,121,5,2,NA,600,50,P,R,FALSE,269.280000001658,6109d7e2b359885223296d05
17318,Central,122,5,2,NA,1000,50,R,R,TRUE,998.845000001602,6109d7e2b359885223296d05
17318,Central,123,5,2,NA,600,200,R,R,TRUE,164.175000000745,6109d7e2b359885223296d05
17318,Central,124,5,2,NA,1000,400,B,P,FALSE,1049.69499999937,6109d7e2b359885223296d05
17318,Central,125,5,2,NA,1000,200,B,R,FALSE,507.199000000022,6109d7e2b359885223296d05
17318,Central,126,5,2,NA,1400,200,B,P,FALSE,468.807000000961,6109d7e2b359885223296d05
17318,Central,127,5,4,NA,200,400,B,B,TRUE,335.209000001661,6109d7e2b359885223296d05
17318,Central,128,5,2,NA,1800,400,P,R,FALSE,453.201999999117,6109d7e2b359885223296d05
17318,Central,129,5,3,NA,200,200,P,B,FALSE,860.662000002339,6109d7e2b359885223296d05
17318,Central,130,5,3,NA,1000,200,R,R,TRUE,873.502000001259,6109d7e2b359885223296d05
17318,Central,131,5,2,NA,1800,400,R,P,FALSE,232.94800000079,6109d7e2b359885223296d05
17318,Central,132,5,4,NA,1000,50,R,P,FALSE,467.589999999851,6109d7e2b359885223296d05
17318,Central,133,5,3,NA,200,400,R,B,FALSE,274.958000001498,6109d7e2b359885223296d05
17318,Central,134,5,3,NA,1400,50,B,P,FALSE,703.183999999426,6109d7e2b359885223296d05
17318,Central,135,5,2,NA,1400,50,R,P,FALSE,2044.66799999913,6109d7e2b359885223296d05
17318,Central,136,5,2,NA,600,200,B,P,FALSE,463.305999999866,6109d7e2b359885223296d05
17318,Central,137,5,1,NA,1400,200,B,R,FALSE,421.18000000203,6109d7e2b359885223296d05
17318,Central,138,5,1,NA,1800,200,P,R,FALSE,351.490000000689,6109d7e2b359885223296d05
17318,Central,139,5,2,NA,600,50,B,B,TRUE,439.888000001665,6109d7e2b359885223296d05
17318,Central,140,5,4,NA,600,200,P,P,TRUE,760.996000001673,6109d7e2b359885223296d05
17318,Central,141,5,1,NA,1400,50,R,R,TRUE,719.964000000153,6109d7e2b359885223296d05
17318,Central,142,5,2,NA,1800,200,P,P,TRUE,276.698000002187,6109d7e2b359885223296d05
17318,Central,143,5,4,NA,1000,400,B,R,FALSE,468.156000002287,6109d7e2b359885223296d05
17318,Central,144,5,2,NA,1000,400,P,P,TRUE,284.467000002041,6109d7e2b359885223296d05
17318,Central,145,5,3,NA,1400,200,R,P,FALSE,772.032999999821,6109d7e2b359885223296d05
17318,Central,146,5,2,NA,1000,200,P,R,FALSE,1558.33699999982,6109d7e2b359885223296d05
17318,Central,147,5,3,NA,1800,200,P,B,FALSE,31.4360000020824,6109d7e2b359885223296d05
17318,Central,148,5,2,NA,1000,400,R,P,FALSE,222.41800000146,6109d7e2b359885223296d05
17318,Central,149,5,1,NA,1800,400,B,B,TRUE,1857.02500000084,6109d7e2b359885223296d05
17318,Central,150,5,2,NA,200,400,R,R,TRUE,56.0469999997877,6109d7e2b359885223296d05
17318,Central,151,5,2,NA,200,400,P,P,TRUE,236.231000001542,6109d7e2b359885223296d05
17318,Central,152,5,1,NA,1000,50,P,P,TRUE,602.572999999858,6109d7e2b359885223296d05
17318,Central,153,5,2,NA,200,200,P,P,TRUE,195.154000002425,6109d7e2b359885223296d05
17318,Central,154,5,4,NA,200,200,R,R,TRUE,529.36999999918,6109d7e2b359885223296d05
17318,Central,155,5,4,NA,1400,50,R,P,FALSE,552.339999999385,6109d7e2b359885223296d05
17318,Central,156,5,2,NA,1800,50,B,B,TRUE,364.394000001717,6109d7e2b359885223296d05
17318,Central,157,5,4,NA,600,200,B,P,FALSE,769.28699999908,6109d7e2b359885223296d05
17318,Central,158,5,2,NA,1400,200,P,P,TRUE,1517.83900000155,6109d7e2b359885223296d05
17318,Central,159,5,3,NA,1800,200,B,R,FALSE,81.5599999991246,6109d7e2b359885223296d05
17318,Central,160,5,1,NA,1800,50,R,P,FALSE,952.527999999467,6109d7e2b359885223296d05
17318,Central,161,5,3,NA,1400,200,P,B,FALSE,1070.42200000165,6109d7e2b359885223296d05
17318,Central,162,5,2,NA,1400,200,R,R,TRUE,318.530999999028,6109d7e2b359885223296d05
17318,Central,163,5,3,NA,600,400,B,P,FALSE,666.642999999225,6109d7e2b359885223296d05
17318,Central,164,5,1,NA,1400,50,B,R,FALSE,358.819000002462,6109d7e2b359885223296d05
17318,Central,165,5,1,NA,1800,50,P,P,TRUE,1209.4189999993,6109d7e2b359885223296d05
17318,Central,166,5,4,NA,1000,400,P,P,TRUE,1127.11500000209,6109d7e2b359885223296d05
17318,Central,167,5,4,NA,200,400,R,R,TRUE,185.743000002112,6109d7e2b359885223296d05
17318,Central,168,5,3,NA,1800,400,B,R,FALSE,246.348000000231,6109d7e2b359885223296d05
17318,Central,169,5,3,NA,1000,200,P,P,TRUE,921.829999999143,6109d7e2b359885223296d05
17318,Central,170,5,3,NA,200,200,R,B,FALSE,216.941999999341,6109d7e2b359885223296d05
17318,Central,171,5,4,NA,1800,200,R,B,FALSE,578.255999999121,6109d7e2b359885223296d05
17318,Central,172,5,3,NA,1800,50,B,B,TRUE,987.115000002086,6109d7e2b359885223296d05
17318,Central,173,5,4,NA,1400,400,P,B,FALSE,398.651000001468,6109d7e2b359885223296d05
17318,Central,174,5,2,NA,1400,50,P,P,TRUE,1565.33700000169,6109d7e2b359885223296d05
17318,Central,175,5,3,NA,600,200,B,R,FALSE,1490.05700000003,6109d7e2b359885223296d05
17318,Central,176,5,4,NA,1400,50,B,P,FALSE,1037.86500000069,6109d7e2b359885223296d05
17318,Central,177,5,2,NA,600,400,B,R,FALSE,399.378000000957,6109d7e2b359885223296d05
17318,Central,178,5,4,NA,600,400,P,P,TRUE,990.057999999262,6109d7e2b359885223296d05
17318,Central,179,5,2,NA,1000,200,R,R,TRUE,643.570000002161,6109d7e2b359885223296d05
17318,Central,180,5,2,NA,1800,50,P,B,FALSE,211.869000002276,6109d7e2b359885223296d05
17317,Central,0,5,1,NA,1800,200,B,B,TRUE,6224.77000004769,610bf4fc7cf7b83defec82df
17317,Central,0,5,1,NA,200,400,R,R,TRUE,3141.0049999523,610bf4fc7cf7b83defec82df
17317,Central,0,5,1,NA,1400,200,B,B,TRUE,5476.03399995231,610bf4fc7cf7b83defec82df
17317,Central,0,5,1,NA,200,50,B,R,FALSE,22168.7650000954,610bf4fc7cf7b83defec82df
17317,Central,0,5,4,NA,600,50,R,B,FALSE,2052.48699995229,610bf4fc7cf7b83defec82df
17317,Central,0,5,1,NA,1800,400,B,R,FALSE,2841.84200004768,610bf4fc7cf7b83defec82df
17317,Central,0,5,2,NA,200,50,R,P,FALSE,18580.412000143,610bf4fc7cf7b83defec82df
17317,Central,0,5,4,NA,1000,400,P,P,TRUE,4161.24300009536,610bf4fc7cf7b83defec82df
17317,Central,0,5,3,NA,1400,400,B,R,FALSE,3578.03600004769,610bf4fc7cf7b83defec82df
17317,Central,0,5,4,NA,1800,400,R,R,TRUE,1889.61200009537,610bf4fc7cf7b83defec82df
17317,Central,1,5,2,NA,1800,200,R,P,FALSE,1646.13900014304,610bf4fc7cf7b83defec82df
17317,Central,2,5,2,NA,1400,400,P,R,FALSE,1208.28600009537,610bf4fc7cf7b83defec82df
17317,Central,3,5,4,NA,1000,50,P,P,TRUE,1380.06699999998,610bf4fc7cf7b83defec82df
17317,Central,4,5,4,NA,1000,200,P,P,TRUE,921.155000000028,610bf4fc7cf7b83defec82df
17317,Central,5,5,1,NA,200,200,B,R,FALSE,3863.60400004766,610bf4fc7cf7b83defec82df
17317,Central,6,5,1,NA,1000,400,B,B,TRUE,787.194000143034,610bf4fc7cf7b83defec82df
17317,Central,7,5,3,NA,600,200,P,B,FALSE,879.453000095382,610bf4fc7cf7b83defec82df
17317,Central,8,5,3,NA,600,200,B,R,FALSE,1677.04299995233,610bf4fc7cf7b83defec82df
17317,Central,9,5,2,NA,1800,400,B,B,TRUE,2197.41300009534,610bf4fc7cf7b83defec82df
17317,Central,10,5,4,NA,600,50,B,P,FALSE,9451.62400014303,610bf4fc7cf7b83defec82df
17317,Central,11,5,2,NA,1400,50,P,P,TRUE,11019.081,610bf4fc7cf7b83defec82df
17317,Central,12,5,1,NA,1800,400,B,P,FALSE,9926.67000004766,610bf4fc7cf7b83defec82df
17317,Central,13,5,2,NA,1400,200,B,B,TRUE,2207.28299995232,610bf4fc7cf7b83defec82df
17317,Central,14,5,1,NA,1800,50,B,B,TRUE,23921.2450001431,610bf4fc7cf7b83defec82df
17317,Central,15,5,1,NA,200,400,P,R,FALSE,2186.52700004767,610bf4fc7cf7b83defec82df
17317,Central,16,5,1,NA,1800,50,P,B,FALSE,1582.78200000001,610bf4fc7cf7b83defec82df
17317,Central,17,5,2,NA,600,400,R,P,FALSE,1543.83500000002,610bf4fc7cf7b83defec82df
17317,Central,18,5,1,NA,600,400,R,B,FALSE,3060.88799999998,610bf4fc7cf7b83defec82df
17317,Central,19,5,3,NA,200,200,B,R,FALSE,1506.34500009537,610bf4fc7cf7b83defec82df
17317,Central,20,5,4,NA,1400,400,P,P,TRUE,1411.77800009539,610bf4fc7cf7b83defec82df
17317,Central,21,5,3,NA,600,400,B,B,TRUE,1919.07500004768,610bf4fc7cf7b83defec82df
17317,Central,22,5,1,NA,1400,200,R,R,TRUE,3271.0550000954,610bf4fc7cf7b83defec82df
17317,Central,23,5,1,NA,1400,200,P,P,TRUE,1242.90700014302,610bf4fc7cf7b83defec82df
17317,Central,24,5,4,NA,200,200,P,B,FALSE,2216.48300014302,610bf4fc7cf7b83defec82df
17317,Central,25,5,1,NA,1000,50,R,B,FALSE,2579.62499995233,610bf4fc7cf7b83defec82df
17317,Central,26,5,3,NA,200,400,R,P,FALSE,1435.68400000001,610bf4fc7cf7b83defec82df
17317,Central,27,5,1,NA,1000,400,R,B,FALSE,1752.93099995237,610bf4fc7cf7b83defec82df
17317,Central,28,5,4,NA,200,400,P,P,TRUE,1670.49100004765,610bf4fc7cf7b83defec82df
17317,Central,29,5,2,NA,1000,50,P,P,TRUE,1463.7039999523,610bf4fc7cf7b83defec82df
17317,Central,30,5,1,NA,600,50,R,B,FALSE,1738.17799999996,610bf4fc7cf7b83defec82df
17317,Central,31,5,2,NA,1400,50,B,R,FALSE,1741.59400009539,610bf4fc7cf7b83defec82df
17317,Central,32,5,3,NA,1000,400,R,B,FALSE,1857.348,610bf4fc7cf7b83defec82df
17317,Central,33,5,4,NA,1000,200,B,R,FALSE,1885.49199999997,610bf4fc7cf7b83defec82df
17317,Central,34,5,4,NA,1400,400,B,P,FALSE,1797.01200004772,610bf4fc7cf7b83defec82df
17317,Central,35,5,2,NA,200,50,B,R,FALSE,2692.87399999995,610bf4fc7cf7b83defec82df
17317,Central,36,5,4,NA,1800,50,P,B,FALSE,3896.21900000004,610bf4fc7cf7b83defec82df
17317,Central,37,5,3,NA,1800,50,B,P,FALSE,4334.56999995233,610bf4fc7cf7b83defec82df
17317,Central,38,5,3,NA,1400,50,R,R,TRUE,1872.18600004772,610bf4fc7cf7b83defec82df
17317,Central,39,5,4,NA,1800,50,R,B,FALSE,2975.88499995228,610bf4fc7cf7b83defec82df
17317,Central,40,5,2,NA,1000,200,R,P,FALSE,2851.17099995236,610bf4fc7cf7b83defec82df
17317,Central,41,5,4,NA,1800,200,P,R,FALSE,2548.60500014306,610bf4fc7cf7b83defec82df
17317,Central,42,5,4,NA,1000,50,R,R,TRUE,1645.67799999996,610bf4fc7cf7b83defec82df
17317,Central,43,5,2,NA,1800,200,B,P,FALSE,2626.16800014302,610bf4fc7cf7b83defec82df
17317,Central,44,5,2,NA,600,200,P,B,FALSE,807.817000095383,610bf4fc7cf7b83defec82df
17317,Central,45,5,3,NA,1800,50,P,B,FALSE,1146.04600014305,610bf4fc7cf7b83defec82df
17317,Central,46,5,4,NA,600,200,R,R,TRUE,1685.63400014304,610bf4fc7cf7b83defec82df
17317,Central,47,5,1,NA,200,200,R,P,FALSE,1677.11600000004,610bf4fc7cf7b83defec82df
17317,Central,48,5,3,NA,200,50,B,R,FALSE,1390.79700009536,610bf4fc7cf7b83defec82df
17317,Central,49,5,4,NA,1800,200,B,B,TRUE,1892.40200014308,610bf4fc7cf7b83defec82df
17317,Central,50,5,4,NA,1000,400,R,P,FALSE,2331.0380000954,610bf4fc7cf7b83defec82df
17317,Central,51,5,2,NA,1400,400,R,R,TRUE,1458.44299995236,610bf4fc7cf7b83defec82df
17317,Central,52,5,1,NA,1800,400,R,P,FALSE,1789.17099999997,610bf4fc7cf7b83defec82df
17317,Central,53,5,4,NA,600,400,R,R,TRUE,1278.18499995233,610bf4fc7cf7b83defec82df
17317,Central,54,5,3,NA,1400,200,B,B,TRUE,2354.57400009537,610bf4fc7cf7b83defec82df
17317,Central,55,5,1,NA,1400,200,B,B,TRUE,1515.22100000002,610bf4fc7cf7b83defec82df
17317,Central,56,5,1,NA,200,200,P,B,FALSE,2369.21600014309,610bf4fc7cf7b83defec82df
17317,Central,57,5,3,NA,1000,400,P,P,TRUE,1918.41799995233,610bf4fc7cf7b83defec82df
17317,Central,58,5,2,NA,600,400,B,R,FALSE,962.723000095342,610bf4fc7cf7b83defec82df
17317,Central,59,5,4,NA,200,400,R,B,FALSE,1970.74000009533,610bf4fc7cf7b83defec82df
17317,Central,60,5,1,NA,1400,400,B,R,FALSE,4846.58800009533,610bf4fc7cf7b83defec82df
17317,Central,61,5,2,NA,200,400,P,B,FALSE,2021.86300004763,610bf4fc7cf7b83defec82df
17317,Central,62,5,3,NA,1000,50,B,P,FALSE,3058.84899995232,610bf4fc7cf7b83defec82df
17317,Central,63,5,2,NA,1800,50,P,P,TRUE,2359.70100014308,610bf4fc7cf7b83defec82df
17317,Central,64,5,2,NA,1000,200,P,P,TRUE,1799.60600009537,610bf4fc7cf7b83defec82df
17317,Central,65,5,2,NA,1000,50,R,R,TRUE,1155.36300009536,610bf4fc7cf7b83defec82df
17317,Central,66,5,4,NA,200,50,R,B,FALSE,1202.59300009534,610bf4fc7cf7b83defec82df
17317,Central,67,5,4,NA,1400,200,P,B,FALSE,662.270000095363,610bf4fc7cf7b83defec82df
17317,Central,68,5,4,NA,200,50,B,B,TRUE,1304.03799995233,610bf4fc7cf7b83defec82df
17317,Central,69,5,3,NA,1400,50,B,P,FALSE,1271.05900004774,610bf4fc7cf7b83defec82df
17317,Central,70,5,1,NA,1400,50,B,P,FALSE,1279.38100004767,610bf4fc7cf7b83defec82df
17317,Central,71,5,2,NA,600,50,B,B,TRUE,1387.5029999523,610bf4fc7cf7b83defec82df
17317,Central,72,5,4,NA,1800,400,P,R,FALSE,1655.15300004766,610bf4fc7cf7b83defec82df
17317,Central,73,5,4,NA,200,200,B,P,FALSE,728.209000000032,610bf4fc7cf7b83defec82df
17317,Central,74,5,4,NA,1400,400,R,B,FALSE,1227.32900009537,610bf4fc7cf7b83defec82df
17317,Central,75,5,2,NA,1800,200,P,P,TRUE,906.290999952354,610bf4fc7cf7b83defec82df
17317,Central,76,5,4,NA,1800,200,R,P,FALSE,1290.22900000005,610bf4fc7cf7b83defec82df
17317,Central,77,5,4,NA,600,50,P,B,FALSE,1479.83300009533,610bf4fc7cf7b83defec82df
17317,Central,78,5,3,NA,1800,200,R,R,TRUE,1448.05099999998,610bf4fc7cf7b83defec82df
17317,Central,79,5,1,NA,600,200,R,R,TRUE,882.197000000044,610bf4fc7cf7b83defec82df
17317,Central,80,5,1,NA,1400,50,R,B,FALSE,1146.98800014309,610bf4fc7cf7b83defec82df
17317,Central,81,5,1,NA,1800,200,R,P,FALSE,1251.28100009542,610bf4fc7cf7b83defec82df
17317,Central,82,5,2,NA,600,50,R,B,FALSE,1230.38300000003,610bf4fc7cf7b83defec82df
17317,Central,83,5,3,NA,1000,200,R,R,TRUE,1342.08800009533,610bf4fc7cf7b83defec82df
17317,Central,84,5,3,NA,600,400,R,B,FALSE,1118.24699999997,610bf4fc7cf7b83defec82df
17317,Central,85,5,2,NA,1000,50,B,P,FALSE,1245.518000143,610bf4fc7cf7b83defec82df
17317,Central,86,5,1,NA,200,400,B,R,FALSE,1160.95900009538,610bf4fc7cf7b83defec82df
17317,Central,87,5,1,NA,600,200,B,B,TRUE,1058.27899999998,610bf4fc7cf7b83defec82df
17317,Central,88,5,4,NA,600,400,B,B,TRUE,658.53100009542,610bf4fc7cf7b83defec82df
17317,Central,89,5,1,NA,1400,400,R,B,FALSE,1624.00699999998,610bf4fc7cf7b83defec82df
17317,Central,90,5,3,NA,600,50,R,R,TRUE,1414.09899995232,610bf4fc7cf7b83defec82df
17317,Central,91,5,1,NA,1000,200,R,B,FALSE,1772.13699999999,610bf4fc7cf7b83defec82df
17317,Central,92,5,3,NA,200,50,P,R,FALSE,1759.41800014302,610bf4fc7cf7b83defec82df
17317,Central,93,5,2,NA,1400,400,B,R,FALSE,1663.26599999995,610bf4fc7cf7b83defec82df
17317,Central,94,5,2,NA,1000,200,B,P,FALSE,2573.91700004763,610bf4fc7cf7b83defec82df
17317,Central,95,5,4,NA,600,400,P,B,FALSE,1714.15500000003,610bf4fc7cf7b83defec82df
17317,Central,96,5,4,NA,1400,200,B,B,TRUE,945.231000047643,610bf4fc7cf7b83defec82df
17317,Central,97,5,2,NA,200,200,R,P,FALSE,1612.30100014305,610bf4fc7cf7b83defec82df
17317,Central,98,5,3,NA,1400,400,B,R,FALSE,848.078000143054,610bf4fc7cf7b83defec82df
17317,Central,99,5,4,NA,200,50,P,P,TRUE,961.196999952313,610bf4fc7cf7b83defec82df
17317,Central,100,5,2,NA,1400,50,R,R,TRUE,1508.51300004765,610bf4fc7cf7b83defec82df
17317,Central,101,5,2,NA,200,50,P,P,TRUE,1071.82900000003,610bf4fc7cf7b83defec82df
17317,Central,102,5,4,NA,600,50,R,P,FALSE,844.83599995228,610bf4fc7cf7b83defec82df
17317,Central,103,5,3,NA,1000,200,B,R,FALSE,891.891999952262,610bf4fc7cf7b83defec82df
17317,Central,104,5,4,NA,600,200,B,B,TRUE,935.150000143098,610bf4fc7cf7b83defec82df
17317,Central,105,5,1,NA,600,50,B,B,TRUE,1216.13000014308,610bf4fc7cf7b83defec82df
17317,Central,106,5,4,NA,1400,50,B,R,FALSE,1416.32900000003,610bf4fc7cf7b83defec82df
17317,Central,107,5,4,NA,1400,50,P,R,FALSE,918.084000095376,610bf4fc7cf7b83defec82df
17317,Central,108,5,4,NA,1000,400,P,R,FALSE,975.601999999955,610bf4fc7cf7b83defec82df
17317,Central,109,5,2,NA,1400,200,R,P,FALSE,1003.49199995236,610bf4fc7cf7b83defec82df
17317,Central,110,5,3,NA,1800,200,B,R,FALSE,1286.61600000004,610bf4fc7cf7b83defec82df
17317,Central,111,5,1,NA,1000,50,B,B,TRUE,1548.09400009539,610bf4fc7cf7b83defec82df
17317,Central,112,5,1,NA,200,50,P,B,FALSE,1302.44000004767,610bf4fc7cf7b83defec82df
17317,Central,113,5,3,NA,1000,200,P,P,TRUE,663.680000047665,610bf4fc7cf7b83defec82df
17317,Central,114,5,4,NA,600,200,P,R,FALSE,705.239000095404,610bf4fc7cf7b83defec82df
17317,Central,115,5,1,NA,1000,200,B,B,TRUE,1105.04299995233,610bf4fc7cf7b83defec82df
17317,Central,116,5,1,NA,200,50,B,B,TRUE,1655.20500014303,610bf4fc7cf7b83defec82df
17317,Central,117,5,1,NA,200,50,R,B,FALSE,1229.39300000004,610bf4fc7cf7b83defec82df
17317,Central,118,5,2,NA,200,50,R,B,FALSE,3116.74499995227,610bf4fc7cf7b83defec82df
17317,Central,119,5,4,NA,1000,200,R,B,FALSE,1930.67600004771,610bf4fc7cf7b83defec82df
17317,Central,120,5,2,NA,200,200,P,R,FALSE,1892.48999999999,610bf4fc7cf7b83defec82df
17317,Central,121,5,3,NA,600,50,B,P,FALSE,1154.46200004767,610bf4fc7cf7b83defec82df
17317,Central,122,5,3,NA,600,50,P,R,FALSE,1380.15600009542,610bf4fc7cf7b83defec82df
17317,Central,123,5,2,NA,600,200,B,B,TRUE,1304.52900004771,610bf4fc7cf7b83defec82df
17317,Central,124,5,3,NA,1800,200,P,R,FALSE,1454.70100009535,610bf4fc7cf7b83defec82df
17317,Central,125,5,3,NA,600,400,P,P,TRUE,845.638999999966,610bf4fc7cf7b83defec82df
17317,Central,126,5,1,NA,1000,200,P,P,TRUE,1209.599000143,610bf4fc7cf7b83defec82df
17317,Central,127,5,3,NA,1000,50,R,R,TRUE,1121.47200004768,610bf4fc7cf7b83defec82df
17317,Central,128,5,1,NA,600,400,B,P,FALSE,1410.56300009531,610bf4fc7cf7b83defec82df
17317,Central,129,5,3,NA,1800,400,P,B,FALSE,1130.65099999995,610bf4fc7cf7b83defec82df
17317,Central,130,5,4,NA,200,400,B,B,TRUE,1358.18899995228,610bf4fc7cf7b83defec82df
17317,Central,131,5,2,NA,1800,400,P,R,FALSE,448.766999999993,610bf4fc7cf7b83defec82df
17317,Central,132,5,1,NA,1800,50,R,P,FALSE,2177.46900009539,610bf4fc7cf7b83defec82df
17317,Central,133,5,2,NA,1000,400,P,B,FALSE,1447.13000014308,610bf4fc7cf7b83defec82df
17317,Central,134,5,3,NA,1400,400,R,P,FALSE,1416.08400000003,610bf4fc7cf7b83defec82df
17317,Central,135,5,3,NA,1000,50,P,B,FALSE,1584.70100009535,610bf4fc7cf7b83defec82df
17317,Central,136,5,3,NA,1400,400,P,R,FALSE,1567.52399995236,610bf4fc7cf7b83defec82df
17317,Central,137,5,1,NA,600,200,P,R,FALSE,1130.35500004771,610bf4fc7cf7b83defec82df
17317,Central,138,5,4,NA,1000,50,B,R,FALSE,1471.62699995236,610bf4fc7cf7b83defec82df
17317,Central,139,5,3,NA,1400,200,P,P,TRUE,1543.42600014305,610bf4fc7cf7b83defec82df
17317,Central,140,5,2,NA,1000,400,B,R,FALSE,1944.14900009532,610bf4fc7cf7b83defec82df
17317,Central,141,5,1,NA,600,400,P,P,TRUE,2007.61899995233,610bf4fc7cf7b83defec82df
17317,Central,142,5,4,NA,200,200,R,B,FALSE,2125.4840000954,610bf4fc7cf7b83defec82df
17317,Central,143,5,3,NA,200,50,R,B,FALSE,819.464999999967,610bf4fc7cf7b83defec82df
17317,Central,144,5,1,NA,1800,200,B,P,FALSE,1398.98500009533,610bf4fc7cf7b83defec82df
17317,Central,145,5,4,NA,1800,50,B,B,TRUE,1758.72799995227,610bf4fc7cf7b83defec82df
17317,Central,146,5,2,NA,1800,50,R,B,FALSE,976.388000142993,610bf4fc7cf7b83defec82df
17317,Central,147,5,3,NA,1400,200,R,R,TRUE,2185.95100004773,610bf4fc7cf7b83defec82df
17317,Central,148,5,1,NA,1000,400,P,R,FALSE,2135.72900000005,610bf4fc7cf7b83defec82df
17317,Central,149,5,3,NA,200,400,B,B,TRUE,1452.48900014302,610bf4fc7cf7b83defec82df
17317,Central,150,5,3,NA,1000,400,B,B,TRUE,1938.14599995234,610bf4fc7cf7b83defec82df
17317,Central,151,5,3,NA,600,200,R,B,FALSE,1047.78500009538,610bf4fc7cf7b83defec82df
17317,Central,152,5,2,NA,1800,400,R,P,FALSE,2443.39499995229,610bf4fc7cf7b83defec82df
17317,Central,153,5,1,NA,1400,50,P,P,TRUE,1556.78099999996,610bf4fc7cf7b83defec82df
17317,Central,154,5,2,NA,600,400,P,B,FALSE,1170.08400004776,610bf4fc7cf7b83defec82df
17317,Central,155,5,1,NA,1800,400,P,R,FALSE,2033.65400004759,610bf4fc7cf7b83defec82df
17317,Central,156,5,3,NA,1800,50,R,B,FALSE,1381.86000009533,610bf4fc7cf7b83defec82df
17317,Central,157,5,4,NA,1400,200,R,R,TRUE,1672.57700000005,610bf4fc7cf7b83defec82df
17317,Central,158,5,1,NA,200,400,R,P,FALSE,563.380000143079,610bf4fc7cf7b83defec82df
17317,Central,159,5,3,NA,200,200,P,P,TRUE,846.716000000015,610bf4fc7cf7b83defec82df
17317,Central,160,5,2,NA,600,50,P,R,FALSE,1357.31199999992,610bf4fc7cf7b83defec82df
17317,Central,161,5,4,NA,1800,400,R,B,FALSE,1138.24499995238,610bf4fc7cf7b83defec82df
17317,Central,162,5,3,NA,1800,400,R,B,FALSE,1043.57500014314,610bf4fc7cf7b83defec82df
17317,Central,163,5,2,NA,1800,50,B,P,FALSE,1150.77000004775,610bf4fc7cf7b83defec82df
17317,Central,164,5,2,NA,200,400,B,P,FALSE,1407.91000014311,610bf4fc7cf7b83defec82df
17317,Central,165,5,4,NA,1000,400,B,R,FALSE,1676.6060001431,610bf4fc7cf7b83defec82df
17317,Central,166,5,3,NA,1400,50,P,P,TRUE,912.602999999886,610bf4fc7cf7b83defec82df
17317,Central,167,5,4,NA,1800,400,B,B,TRUE,997.556000047596,610bf4fc7cf7b83defec82df
17317,Central,168,5,1,NA,1400,400,P,P,TRUE,619.470000143163,610bf4fc7cf7b83defec82df
17317,Central,169,5,3,NA,200,400,P,P,TRUE,564.515000047628,610bf4fc7cf7b83defec82df
17317,Central,170,5,1,NA,1000,50,P,R,FALSE,2462.37000009534,610bf4fc7cf7b83defec82df
17317,Central,171,5,2,NA,200,400,R,R,TRUE,1777.68900014297,610bf4fc7cf7b83defec82df
17317,Central,172,5,1,NA,600,50,P,P,TRUE,3432.95100014308,610bf4fc7cf7b83defec82df
17317,Central,173,5,2,NA,200,200,B,R,FALSE,1985.41700009536,610bf4fc7cf7b83defec82df
17317,Central,174,5,2,NA,1400,200,P,P,TRUE,641.317000000039,610bf4fc7cf7b83defec82df
17317,Central,175,5,4,NA,1400,50,R,B,FALSE,1018.49800004764,610bf4fc7cf7b83defec82df
17317,Central,176,5,3,NA,200,200,R,B,FALSE,618.458000047598,610bf4fc7cf7b83defec82df
17317,Central,177,5,2,NA,1000,400,R,R,TRUE,1842.28499999992,610bf4fc7cf7b83defec82df
17317,Central,178,5,1,NA,1800,200,P,P,TRUE,660.49999995227,610bf4fc7cf7b83defec82df
17317,Central,179,5,2,NA,600,200,R,P,FALSE,1328.58000004757,610bf4fc7cf7b83defec82df
17317,Central,180,5,3,NA,1800,400,B,B,TRUE,1195.79800004768,610bf4fc7cf7b83defec82df
17317,Colour,0,5,4,NA,1800,400,B,B,TRUE,1198.85700004757,610bf4fc7cf7b83defec82df
17317,Colour,0,5,2,NA,1400,400,B,R,FALSE,1172.15599995223,610bf4fc7cf7b83defec82df
17317,Colour,0,5,3,NA,1000,400,B,B,TRUE,1115.69299999997,610bf4fc7cf7b83defec82df
17317,Colour,0,5,1,NA,600,200,R,R,TRUE,831.623000095366,610bf4fc7cf7b83defec82df
17317,Colour,0,5,3,NA,600,50,P,P,TRUE,983.693999999901,610bf4fc7cf7b83defec82df
17317,Colour,0,5,1,NA,200,50,R,B,FALSE,893.164000047604,610bf4fc7cf7b83defec82df
17317,Colour,0,5,3,NA,1800,50,P,R,FALSE,1075.14199999999,610bf4fc7cf7b83defec82df
17317,Colour,0,5,4,NA,200,50,R,B,FALSE,1225.93899995228,610bf4fc7cf7b83defec82df
17317,Colour,0,5,1,NA,1400,200,B,R,FALSE,965.224999952363,610bf4fc7cf7b83defec82df
17317,Colour,0,5,4,NA,1400,200,B,B,TRUE,1871.12900009542,610bf4fc7cf7b83defec82df
17317,Colour,1,5,4,NA,600,200,R,B,FALSE,3922.34700014303,610bf4fc7cf7b83defec82df
17317,Colour,2,5,1,NA,600,400,B,P,FALSE,1562.59299995238,610bf4fc7cf7b83defec82df
17317,Colour,3,5,4,NA,1400,400,P,R,FALSE,1220.03400009545,610bf4fc7cf7b83defec82df
17317,Colour,4,5,3,NA,200,400,P,B,FALSE,1472.7350000476,610bf4fc7cf7b83defec82df
17317,Colour,5,5,4,NA,200,50,P,P,TRUE,555.149000143167,610bf4fc7cf7b83defec82df
17317,Colour,6,5,1,NA,600,400,P,P,TRUE,552.058999999892,610bf4fc7cf7b83defec82df
17317,Colour,7,5,3,NA,1400,200,B,B,TRUE,765.109000047669,610bf4fc7cf7b83defec82df
17317,Colour,8,5,3,NA,1400,50,B,R,FALSE,1263.41500009526,610bf4fc7cf7b83defec82df
17317,Colour,9,5,4,NA,600,400,B,B,TRUE,695.52700014296,610bf4fc7cf7b83defec82df
17317,Colour,10,5,2,NA,200,400,R,B,FALSE,1259.75300004776,610bf4fc7cf7b83defec82df
17317,Colour,11,5,3,NA,600,200,R,R,TRUE,1437.89399995236,610bf4fc7cf7b83defec82df
17317,Colour,12,5,2,NA,1000,200,R,R,TRUE,643.952999952249,610bf4fc7cf7b83defec82df
17317,Colour,13,5,4,NA,200,50,R,R,TRUE,911.477000047686,610bf4fc7cf7b83defec82df
17317,Colour,14,5,3,NA,600,50,P,B,FALSE,870.587000143016,610bf4fc7cf7b83defec82df
17317,Colour,15,5,4,NA,200,400,P,P,TRUE,591.730000095442,610bf4fc7cf7b83defec82df
17317,Colour,16,5,1,NA,200,50,B,R,FALSE,1425.70900014299,610bf4fc7cf7b83defec82df
17317,Colour,17,5,3,NA,200,200,P,P,TRUE,787.081999952206,610bf4fc7cf7b83defec82df
17317,Colour,18,5,3,NA,1000,400,R,B,FALSE,1352.53700009547,610bf4fc7cf7b83defec82df
17317,Colour,19,5,4,NA,1000,50,P,P,TRUE,1207.71500014304,610bf4fc7cf7b83defec82df
17317,Colour,20,5,1,NA,600,400,R,B,FALSE,1723.2620000476,610bf4fc7cf7b83defec82df
17317,Colour,21,5,3,NA,1000,50,R,R,TRUE,2008.20300004771,610bf4fc7cf7b83defec82df
17317,Colour,22,5,1,NA,1000,400,P,R,FALSE,1068.22600009525,610bf4fc7cf7b83defec82df
17317,Colour,23,5,4,NA,1000,200,R,R,TRUE,1132.18800009531,610bf4fc7cf7b83defec82df
17317,Colour,24,5,1,NA,1000,400,B,P,FALSE,1412.18500014301,610bf4fc7cf7b83defec82df
17317,Colour,25,5,4,NA,1800,50,P,P,TRUE,890.176000142936,610bf4fc7cf7b83defec82df
17317,Colour,26,5,3,NA,1000,200,R,B,FALSE,592.693000143161,610bf4fc7cf7b83defec82df
17317,Colour,27,5,2,NA,1400,200,R,P,FALSE,2860.56600009534,610bf4fc7cf7b83defec82df
17317,Colour,28,5,2,NA,1800,50,R,R,TRUE,1677.22900004778,610bf4fc7cf7b83defec82df
17317,Colour,29,5,2,NA,1400,400,B,P,FALSE,422.59900004766,610bf4fc7cf7b83defec82df
17317,Colour,30,5,3,NA,600,200,P,B,FALSE,1342.121000143,610bf4fc7cf7b83defec82df
17317,Colour,31,5,2,NA,1400,200,P,P,TRUE,2708.24199995236,610bf4fc7cf7b83defec82df
17317,Colour,32,5,1,NA,600,200,B,B,TRUE,1509.2509999522,610bf4fc7cf7b83defec82df
17317,Colour,33,5,1,NA,1800,400,B,R,FALSE,1936.0569999523,610bf4fc7cf7b83defec82df
17317,Colour,34,5,4,NA,1400,200,P,P,TRUE,812.712999952259,610bf4fc7cf7b83defec82df
17317,Colour,35,5,4,NA,1400,200,B,P,FALSE,877.644999952288,610bf4fc7cf7b83defec82df
17317,Colour,36,5,3,NA,200,50,P,P,TRUE,681.408000143012,610bf4fc7cf7b83defec82df
17317,Colour,37,5,3,NA,1800,50,R,R,TRUE,2140.12700009532,610bf4fc7cf7b83defec82df
17317,Colour,38,5,4,NA,1400,400,R,R,TRUE,1455.3189999999,610bf4fc7cf7b83defec82df
17317,Colour,39,5,4,NA,200,200,B,P,FALSE,1388.22100009536,610bf4fc7cf7b83defec82df
17317,Colour,40,5,3,NA,1000,50,P,P,TRUE,784.148999952246,610bf4fc7cf7b83defec82df
17317,Colour,41,5,1,NA,1000,200,P,R,FALSE,2564.08700000006,610bf4fc7cf7b83defec82df
17317,Colour,42,5,3,NA,600,50,R,B,FALSE,1213.10100014298,610bf4fc7cf7b83defec82df
17317,Colour,43,5,1,NA,600,200,P,R,FALSE,1747.80400009546,610bf4fc7cf7b83defec82df
17317,Colour,44,5,4,NA,200,400,B,P,FALSE,1383.87999995239,610bf4fc7cf7b83defec82df
17317,Colour,45,5,4,NA,600,50,P,B,FALSE,1580.15900004772,610bf4fc7cf7b83defec82df
17317,Colour,46,5,4,NA,1800,50,B,P,FALSE,1421.12700014305,610bf4fc7cf7b83defec82df
17317,Colour,47,5,2,NA,600,400,B,R,FALSE,1210.30499999993,610bf4fc7cf7b83defec82df
17317,Colour,48,5,4,NA,1000,200,B,B,TRUE,1106.85000014305,610bf4fc7cf7b83defec82df
17317,Colour,49,5,3,NA,1000,200,B,R,FALSE,1343.54000009526,610bf4fc7cf7b83defec82df
17317,Colour,50,5,4,NA,1000,50,R,R,TRUE,754.040000000037,610bf4fc7cf7b83defec82df
17317,Colour,51,5,3,NA,1800,200,P,P,TRUE,802.050000143005,610bf4fc7cf7b83defec82df
17317,Colour,52,5,4,NA,1400,50,R,P,FALSE,977.054000095464,610bf4fc7cf7b83defec82df
17317,Colour,53,5,3,NA,1400,200,R,B,FALSE,1084.06900004763,610bf4fc7cf7b83defec82df
17317,Colour,54,5,4,NA,600,400,R,R,TRUE,1207.4970000477,610bf4fc7cf7b83defec82df
17317,Colour,55,5,2,NA,1400,50,B,R,FALSE,1399.99799995241,610bf4fc7cf7b83defec82df
17317,Colour,56,5,1,NA,1000,200,R,B,FALSE,1803.99700014316,610bf4fc7cf7b83defec82df
17317,Colour,57,5,3,NA,1800,400,B,B,TRUE,737.887000000104,610bf4fc7cf7b83defec82df
17317,Colour,58,5,2,NA,600,50,P,P,TRUE,1685.37899995223,610bf4fc7cf7b83defec82df
17317,Colour,59,5,3,NA,600,50,B,R,FALSE,1568.32800009544,610bf4fc7cf7b83defec82df
17317,Colour,60,5,2,NA,1800,50,P,R,FALSE,1139.95400004764,610bf4fc7cf7b83defec82df
17317,Colour,61,5,2,NA,1400,200,B,P,FALSE,721.513000095263,610bf4fc7cf7b83defec82df
17317,Colour,62,5,3,NA,200,400,B,B,TRUE,1017.44000014313,610bf4fc7cf7b83defec82df
17317,Colour,63,5,3,NA,1800,50,P,B,FALSE,1011.06500004767,610bf4fc7cf7b83defec82df
17317,Colour,64,5,2,NA,200,200,R,R,TRUE,2229.51199995237,610bf4fc7cf7b83defec82df
17317,Colour,65,5,1,NA,1400,50,R,R,TRUE,1600.24799995241,610bf4fc7cf7b83defec82df
17317,Colour,66,5,3,NA,1000,400,B,B,TRUE,1011.64300004765,610bf4fc7cf7b83defec82df
17317,Colour,67,5,2,NA,1800,200,R,R,TRUE,1442.70000009541,610bf4fc7cf7b83defec82df
17317,Colour,68,5,1,NA,1400,200,P,R,FALSE,1727.97799999989,610bf4fc7cf7b83defec82df
17317,Colour,69,5,2,NA,200,50,R,P,FALSE,1377.02799999993,610bf4fc7cf7b83defec82df
17317,Colour,70,5,1,NA,1800,400,R,P,FALSE,704.476999952225,610bf4fc7cf7b83defec82df
17317,Colour,71,5,1,NA,200,200,P,R,FALSE,1336.22500000009,610bf4fc7cf7b83defec82df
17317,Colour,72,5,1,NA,1800,400,P,B,FALSE,651.04699995229,610bf4fc7cf7b83defec82df
17317,Colour,73,5,4,NA,1000,400,P,P,TRUE,1423.20399999991,610bf4fc7cf7b83defec82df
17317,Colour,74,5,3,NA,1800,50,B,B,TRUE,1422.19600009546,610bf4fc7cf7b83defec82df
17317,Colour,75,5,2,NA,600,200,B,R,FALSE,1359.11700009531,610bf4fc7cf7b83defec82df
17317,Colour,76,5,4,NA,1000,400,R,R,TRUE,1636.66199995228,610bf4fc7cf7b83defec82df
17317,Colour,77,5,4,NA,600,50,R,R,TRUE,1274.96400009538,610bf4fc7cf7b83defec82df
17317,Colour,78,5,3,NA,1400,400,P,B,FALSE,1204.0140000477,610bf4fc7cf7b83defec82df
17317,Colour,79,5,4,NA,600,200,B,P,FALSE,1822.85400009528,610bf4fc7cf7b83defec82df
17317,Colour,80,5,2,NA,1000,400,R,B,FALSE,1486.25200009532,610bf4fc7cf7b83defec82df
17317,Colour,81,5,1,NA,1800,50,B,P,FALSE,1809.86800009548,610bf4fc7cf7b83defec82df
17317,Colour,82,5,2,NA,600,200,P,P,TRUE,1484.11699995236,610bf4fc7cf7b83defec82df
17317,Colour,83,5,2,NA,600,200,R,P,FALSE,2055.14300004765,610bf4fc7cf7b83defec82df
17317,Colour,84,5,4,NA,1400,50,B,B,TRUE,1062.2350000476,610bf4fc7cf7b83defec82df
17317,Colour,85,5,1,NA,200,200,R,B,FALSE,1024.76000004774,610bf4fc7cf7b83defec82df
17317,Colour,86,5,1,NA,200,400,P,P,TRUE,796.060000000056,610bf4fc7cf7b83defec82df
17317,Colour,87,5,3,NA,200,400,R,B,FALSE,1210.52100004768,610bf4fc7cf7b83defec82df
17317,Colour,88,5,1,NA,1400,400,R,B,FALSE,1066.01099999994,610bf4fc7cf7b83defec82df
17317,Colour,89,5,2,NA,1800,400,R,B,FALSE,2013.37800009525,610bf4fc7cf7b83defec82df
17317,Colour,90,5,3,NA,200,50,R,R,TRUE,1798.06599995238,610bf4fc7cf7b83defec82df
17317,Colour,91,5,1,NA,1400,200,R,B,FALSE,1461.45900000003,610bf4fc7cf7b83defec82df
17317,Colour,92,5,3,NA,1800,200,B,R,FALSE,1574.86600004765,610bf4fc7cf7b83defec82df
17317,Colour,93,5,3,NA,600,400,P,P,TRUE,1665.05300014303,610bf4fc7cf7b83defec82df
17317,Colour,94,5,4,NA,1800,400,R,B,FALSE,2329.24199995236,610bf4fc7cf7b83defec82df
17317,Colour,95,5,4,NA,600,200,P,P,TRUE,663.702000143006,610bf4fc7cf7b83defec82df
17317,Colour,96,5,3,NA,200,200,B,B,TRUE,901.877000000095,610bf4fc7cf7b83defec82df
17317,Colour,97,5,2,NA,1400,400,P,R,FALSE,1287.1549999523,610bf4fc7cf7b83defec82df
17317,Colour,98,5,3,NA,1000,400,P,P,TRUE,359.144999952288,610bf4fc7cf7b83defec82df
17317,Colour,99,5,1,NA,1000,400,R,P,FALSE,2211.7340000954,610bf4fc7cf7b83defec82df
17317,Colour,100,5,2,NA,1800,200,P,B,FALSE,1733.46800000011,610bf4fc7cf7b83defec82df
17317,Colour,101,5,1,NA,1000,50,P,R,FALSE,1378.09099995228,610bf4fc7cf7b83defec82df
17317,Colour,102,5,4,NA,1000,400,B,B,TRUE,2249.8590000954,610bf4fc7cf7b83defec82df
17317,Colour,103,5,2,NA,200,400,P,P,TRUE,3613.73399999994,610bf4fc7cf7b83defec82df
17317,Colour,104,5,2,NA,1000,50,R,B,FALSE,3553.48399995221,610bf4fc7cf7b83defec82df
17317,Colour,105,5,3,NA,1400,400,B,R,FALSE,3039.21200014302,610bf4fc7cf7b83defec82df
17317,Colour,106,5,4,NA,1000,50,B,P,FALSE,822.72899995232,610bf4fc7cf7b83defec82df
17317,Colour,107,5,3,NA,600,200,B,B,TRUE,1113.45400004764,610bf4fc7cf7b83defec82df
17317,Colour,108,5,1,NA,1000,200,B,P,FALSE,1067.76300009526,610bf4fc7cf7b83defec82df
17317,Colour,109,5,2,NA,200,400,B,P,FALSE,1856.61600014311,610bf4fc7cf7b83defec82df
17317,Colour,110,5,2,NA,600,50,R,R,TRUE,1591.54900014307,610bf4fc7cf7b83defec82df
17317,Colour,111,5,1,NA,1400,50,P,B,FALSE,1891.15400009532,610bf4fc7cf7b83defec82df
17317,Colour,112,5,2,NA,200,50,P,B,FALSE,1271.26000000001,610bf4fc7cf7b83defec82df
17317,Colour,113,5,2,NA,1000,200,P,R,FALSE,1687.64400014305,610bf4fc7cf7b83defec82df
17317,Colour,114,5,3,NA,1400,50,R,P,FALSE,1265.58799999999,610bf4fc7cf7b83defec82df
17317,Colour,115,5,1,NA,1400,50,B,B,TRUE,1170.16600009543,610bf4fc7cf7b83defec82df
17317,Colour,116,5,1,NA,200,400,R,P,FALSE,635.687000047648,610bf4fc7cf7b83defec82df
17317,Colour,117,5,4,NA,200,200,P,R,FALSE,1048.52800014312,610bf4fc7cf7b83defec82df
17317,Colour,118,5,1,NA,600,50,B,B,TRUE,1210.99099995242,610bf4fc7cf7b83defec82df
17317,Colour,119,5,3,NA,1800,400,R,B,FALSE,900.530000142986,610bf4fc7cf7b83defec82df
17317,Colour,120,5,2,NA,600,400,P,P,TRUE,635.829999952344,610bf4fc7cf7b83defec82df
17317,Colour,121,5,2,NA,200,200,P,R,FALSE,1025.69700014312,610bf4fc7cf7b83defec82df
17317,Colour,122,5,2,NA,200,50,B,R,FALSE,765.522000143072,610bf4fc7cf7b83defec82df
17317,Colour,123,5,4,NA,1800,400,P,B,FALSE,1924.31300014304,610bf4fc7cf7b83defec82df
17317,Colour,124,5,3,NA,1400,200,P,R,FALSE,1192.59200004768,610bf4fc7cf7b83defec82df
17317,Colour,125,5,4,NA,1800,200,B,P,FALSE,1290.21800004761,610bf4fc7cf7b83defec82df
17317,Colour,126,5,3,NA,1400,400,R,R,TRUE,1599.57399995229,610bf4fc7cf7b83defec82df
17317,Colour,127,5,4,NA,200,400,R,B,FALSE,1319.16700004763,610bf4fc7cf7b83defec82df
17317,Colour,128,5,3,NA,200,50,B,B,TRUE,3840.79200004763,610bf4fc7cf7b83defec82df
17317,Colour,129,5,2,NA,1000,50,B,P,FALSE,1432.59399995231,610bf4fc7cf7b83defec82df
17317,Colour,130,5,4,NA,1800,200,R,R,TRUE,1171.06199995242,610bf4fc7cf7b83defec82df
17317,Colour,131,5,1,NA,600,50,P,P,TRUE,771.451999952318,610bf4fc7cf7b83defec82df
17317,Colour,132,5,2,NA,1000,50,P,P,TRUE,921.228000143077,610bf4fc7cf7b83defec82df
17317,Colour,133,5,2,NA,600,50,B,P,FALSE,987.313999952283,610bf4fc7cf7b83defec82df
17317,Colour,134,5,2,NA,1800,400,P,R,FALSE,986.570000095293,610bf4fc7cf7b83defec82df
17317,Colour,135,5,1,NA,600,200,R,B,FALSE,529.541000095429,610bf4fc7cf7b83defec82df
17317,Colour,136,5,1,NA,1400,400,P,P,TRUE,597.356999952346,610bf4fc7cf7b83defec82df
17317,Colour,137,5,3,NA,600,400,B,R,FALSE,1165.60599999991,610bf4fc7cf7b83defec82df
17317,Colour,138,5,2,NA,1000,200,B,R,FALSE,1851.91600009543,610bf4fc7cf7b83defec82df
17317,Colour,139,5,1,NA,1000,50,B,B,TRUE,827.242000047583,610bf4fc7cf7b83defec82df
17317,Colour,140,5,1,NA,200,200,B,P,FALSE,1225.24100009538,610bf4fc7cf7b83defec82df
17317,Colour,141,5,1,NA,600,50,R,R,TRUE,1285.18899995228,610bf4fc7cf7b83defec82df
17317,Colour,142,5,3,NA,1000,200,P,B,FALSE,1041.10099995229,610bf4fc7cf7b83defec82df
17317,Colour,143,5,4,NA,1800,50,R,R,TRUE,777.715000095312,610bf4fc7cf7b83defec82df
17317,Colour,144,5,1,NA,200,50,P,P,TRUE,892.513000047766,610bf4fc7cf7b83defec82df
17317,Colour,145,5,2,NA,600,400,R,R,TRUE,1095.54300004779,610bf4fc7cf7b83defec82df
17317,Colour,146,5,3,NA,1400,50,P,B,FALSE,560.82400014298,610bf4fc7cf7b83defec82df
17317,Colour,147,5,3,NA,200,200,R,R,TRUE,1852.99600009527,610bf4fc7cf7b83defec82df
17317,Colour,148,5,1,NA,1800,200,P,R,FALSE,1463.0149999524,610bf4fc7cf7b83defec82df
17317,Colour,149,5,1,NA,1800,200,R,B,FALSE,1609.52700009546,610bf4fc7cf7b83defec82df
17317,Colour,150,5,3,NA,1800,200,R,B,FALSE,2626.08200014313,610bf4fc7cf7b83defec82df
17317,Colour,151,5,4,NA,1000,200,P,P,TRUE,538.088000095449,610bf4fc7cf7b83defec82df
17317,Colour,152,5,2,NA,1000,400,P,R,FALSE,1041.38399995235,610bf4fc7cf7b83defec82df
17317,Colour,153,5,4,NA,600,400,P,R,FALSE,803.238000143087,610bf4fc7cf7b83defec82df
17317,Colour,154,5,2,NA,1400,50,P,B,FALSE,626.165000000037,610bf4fc7cf7b83defec82df
17317,Colour,155,5,3,NA,1800,400,P,P,TRUE,340.367000143044,610bf4fc7cf7b83defec82df
17317,Colour,156,5,2,NA,1800,200,B,R,FALSE,1047.7750001431,610bf4fc7cf7b83defec82df
17317,Colour,157,5,3,NA,600,400,R,B,FALSE,632.122000047704,610bf4fc7cf7b83defec82df
17317,Colour,158,5,1,NA,1000,50,R,P,FALSE,1068.25300004776,610bf4fc7cf7b83defec82df
17317,Colour,159,5,1,NA,1800,50,P,P,TRUE,1027.83600014308,610bf4fc7cf7b83defec82df
17317,Colour,160,5,1,NA,200,50,R,P,FALSE,1329.87899999996,610bf4fc7cf7b83defec82df
17317,Colour,161,5,1,NA,1800,200,B,B,TRUE,743.813000047579,610bf4fc7cf7b83defec82df
17317,Colour,162,5,2,NA,200,200,B,B,TRUE,2158.37299999991,610bf4fc7cf7b83defec82df
17317,Colour,163,5,4,NA,1400,50,P,P,TRUE,749.471999952337,610bf4fc7cf7b83defec82df
17317,Colour,164,5,1,NA,1400,200,B,P,FALSE,3039.1810000001,610bf4fc7cf7b83defec82df
17317,Colour,165,5,2,NA,1800,400,B,R,FALSE,1630.78500004765,610bf4fc7cf7b83defec82df
17317,Colour,166,5,2,NA,1400,50,R,B,FALSE,2467.20500004757,610bf4fc7cf7b83defec82df
17317,Colour,167,5,2,NA,1800,50,B,B,TRUE,789.935000000056,610bf4fc7cf7b83defec82df
17317,Colour,168,5,4,NA,200,200,R,B,FALSE,1111.11700009531,610bf4fc7cf7b83defec82df
17317,Colour,169,5,2,NA,1400,400,R,P,FALSE,1032.26100014313,610bf4fc7cf7b83defec82df
17317,Colour,170,5,4,NA,1800,400,B,B,TRUE,671.233000047738,610bf4fc7cf7b83defec82df
17317,Colour,171,5,3,NA,1000,50,B,P,FALSE,1992.26600004779,610bf4fc7cf7b83defec82df
17317,Colour,172,5,2,NA,1000,400,B,P,FALSE,865.896999952383,610bf4fc7cf7b83defec82df
17317,Colour,173,5,4,NA,200,50,B,R,FALSE,1328.25100009539,610bf4fc7cf7b83defec82df
17317,Colour,174,5,4,NA,1400,400,B,B,TRUE,811.983000095468,610bf4fc7cf7b83defec82df
17317,Colour,175,5,4,NA,600,50,B,R,FALSE,768.202000047779,610bf4fc7cf7b83defec82df
17317,Colour,176,5,4,NA,1800,200,P,B,FALSE,781.713000095449,610bf4fc7cf7b83defec82df
17317,Colour,177,5,4,NA,1400,200,R,R,TRUE,977.772000047611,610bf4fc7cf7b83defec82df
17317,Colour,178,5,1,NA,1800,50,R,R,TRUE,982.683999999892,610bf4fc7cf7b83defec82df
17317,Colour,179,5,1,NA,200,400,B,P,FALSE,808.546000143047,610bf4fc7cf7b83defec82df
17317,Colour,180,5,1,NA,1400,400,B,B,TRUE,1428.17299995222,610bf4fc7cf7b83defec82df
17316,Colour,0,5,3,NA,1400,400,R,P,FALSE,3666.75800002384,610901ccd0f832f0805c1049
17316,Colour,0,5,1,NA,600,400,B,P,FALSE,5894.60799997614,610901ccd0f832f0805c1049
17316,Colour,0,5,2,NA,1000,200,P,P,TRUE,2597.45899992849,610901ccd0f832f0805c1049
17316,Colour,0,5,2,NA,1800,400,P,P,TRUE,781.788,610901ccd0f832f0805c1049
17316,Colour,0,5,4,NA,200,400,B,R,FALSE,1199.64199992846,610901ccd0f832f0805c1049
17316,Colour,0,5,2,NA,200,200,P,P,TRUE,629.207999928447,610901ccd0f832f0805c1049
17316,Colour,0,5,1,NA,1000,50,B,R,FALSE,1637.66300002387,610901ccd0f832f0805c1049
17316,Colour,0,5,4,NA,200,400,R,R,TRUE,1483.91699997615,610901ccd0f832f0805c1049
17316,Colour,0,5,4,NA,1800,400,R,R,TRUE,685.228000000003,610901ccd0f832f0805c1049
17316,Colour,0,5,1,NA,1400,50,P,B,FALSE,721.52599995234,610901ccd0f832f0805c1049
17316,Colour,1,5,4,NA,1400,200,P,R,FALSE,4329.27000000002,610901ccd0f832f0805c1049
17316,Colour,2,5,3,NA,600,50,P,P,TRUE,4087.07999995234,610901ccd0f832f0805c1049
17316,Colour,3,5,1,NA,1400,200,B,R,FALSE,1879.38199999998,610901ccd0f832f0805c1049
17316,Colour,4,5,4,NA,600,400,P,R,FALSE,1792.81599999999,610901ccd0f832f0805c1049
17316,Colour,5,5,2,NA,200,400,B,P,FALSE,3370.38199992845,610901ccd0f832f0805c1049
17316,Colour,6,5,2,NA,200,200,R,P,FALSE,1948.96799997619,610901ccd0f832f0805c1049
17316,Colour,7,5,1,NA,600,200,R,P,FALSE,4130.1599999523,610901ccd0f832f0805c1049
17316,Colour,8,5,2,NA,1400,50,R,B,FALSE,9029.40599995235,610901ccd0f832f0805c1049
17316,Colour,9,5,3,NA,1000,200,P,R,FALSE,2580.42200002383,610901ccd0f832f0805c1049
17316,Colour,10,5,1,NA,200,50,R,P,FALSE,1488.45199999999,610901ccd0f832f0805c1049
17316,Colour,11,5,1,NA,200,200,B,B,TRUE,1924.85899992846,610901ccd0f832f0805c1049
17316,Colour,12,5,1,NA,600,200,P,P,TRUE,1061.03299992846,610901ccd0f832f0805c1049
17316,Colour,13,5,1,NA,1000,50,P,P,TRUE,654.144999928481,610901ccd0f832f0805c1049
17316,Colour,14,5,4,NA,1400,200,R,R,TRUE,918.097999928461,610901ccd0f832f0805c1049
17316,Colour,15,5,4,NA,600,50,R,R,TRUE,869.551999952295,610901ccd0f832f0805c1049
17316,Colour,16,5,3,NA,1400,200,B,B,TRUE,1072.4099999285,610901ccd0f832f0805c1049
17316,Colour,17,5,3,NA,600,50,B,B,TRUE,3123.1489999285,610901ccd0f832f0805c1049
17316,Colour,18,5,4,NA,200,400,B,P,FALSE,1741.35699999996,610901ccd0f832f0805c1049
17316,Colour,19,5,4,NA,600,50,P,P,TRUE,651.584999976214,610901ccd0f832f0805c1049
17316,Colour,20,5,2,NA,1000,400,B,P,FALSE,362.53399997612,610901ccd0f832f0805c1049
17316,Colour,21,5,1,NA,1400,50,B,P,FALSE,2059.87800000003,610901ccd0f832f0805c1049
17316,Colour,22,5,1,NA,200,200,P,R,FALSE,623.610000023851,610901ccd0f832f0805c1049
17316,Colour,23,5,2,NA,200,400,R,P,FALSE,270.329000023892,610901ccd0f832f0805c1049
17316,Colour,24,5,3,NA,1800,50,B,B,TRUE,831.841000000015,610901ccd0f832f0805c1049
17316,Colour,25,5,3,NA,200,400,B,B,TRUE,267.238999999943,610901ccd0f832f0805c1049
17316,Colour,26,5,3,NA,1000,200,B,B,TRUE,446.949999999953,610901ccd0f832f0805c1049
17316,Colour,27,5,4,NA,600,200,B,R,FALSE,1354.33599997615,610901ccd0f832f0805c1049
17316,Colour,28,5,3,NA,1400,200,R,B,FALSE,528.973999952315,610901ccd0f832f0805c1049
17316,Colour,29,5,3,NA,1400,200,P,B,FALSE,368.852999952273,610901ccd0f832f0805c1049
17316,Colour,30,5,3,NA,200,50,P,B,FALSE,246.724999976112,610901ccd0f832f0805c1049
17316,Colour,31,5,3,NA,1800,200,P,B,FALSE,341.145000023884,610901ccd0f832f0805c1049
17316,Colour,32,5,1,NA,600,400,R,P,FALSE,669.160999999964,610901ccd0f832f0805c1049
17316,Colour,33,5,2,NA,1400,400,R,P,FALSE,358.555999999982,610901ccd0f832f0805c1049
17316,Colour,34,5,3,NA,200,400,P,B,FALSE,254.274000023841,610901ccd0f832f0805c1049
17316,Colour,35,5,3,NA,1400,50,R,B,FALSE,376.236000023899,610901ccd0f832f0805c1049
17316,Colour,36,5,4,NA,1800,400,P,R,FALSE,562.200999952271,610901ccd0f832f0805c1049
17316,Colour,37,5,2,NA,1000,50,B,P,FALSE,919.532999952324,610901ccd0f832f0805c1049
17316,Colour,38,5,1,NA,1400,400,R,P,FALSE,260.706999952323,610901ccd0f832f0805c1049
17316,Colour,39,5,3,NA,200,50,B,B,TRUE,375.296999976155,610901ccd0f832f0805c1049
17316,Colour,40,5,2,NA,1800,50,R,P,FALSE,467.159999976167,610901ccd0f832f0805c1049
17316,Colour,41,5,4,NA,200,400,R,R,TRUE,238.059999976191,610901ccd0f832f0805c1049
17316,Colour,42,5,2,NA,200,50,R,P,FALSE,503.875999976182,610901ccd0f832f0805c1049
17316,Colour,43,5,2,NA,1000,200,B,P,FALSE,168.784999928437,610901ccd0f832f0805c1049
17316,Colour,44,5,4,NA,200,50,P,R,FALSE,358.070999952266,610901ccd0f832f0805c1049
17316,Colour,45,5,1,NA,200,200,R,P,FALSE,390.550999976113,610901ccd0f832f0805c1049
17316,Colour,46,5,3,NA,200,50,R,B,FALSE,313.626999976113,610901ccd0f832f0805c1049
