Exp,ID,Block,trial,trial_type,cueLoc,stimLoc,locDist,FixDur,SOA,CTI,stim,response,correct,RTms,prolific_id,xPixels,yPixels,dpi
SaccadeExp7_font12,17660,No,1,exp,5,2,close,600,650,400,P,P,TRUE,392.298999999999,5fb079128b511d47995da086,1920,1080,1
SaccadeExp7_font12,17660,No,2,exp,5,4,close,200,300,50,P,P,TRUE,372.380999999994,5fb079128b511d47995da086,1920,1080,1
SaccadeExp7_font12,17660,No,3,exp,5,2,close,1400,650,400,R,R,TRUE,1116.19099999999,5fb079128b511d47995da086,1920,1080,1
SaccadeExp7_font12,17660,No,4,exp,5,1,close,600,650,400,B,B,TRUE,1047.99900000001,5fb079128b511d47995da086,1920,1080,1
SaccadeExp7_font12,17660,No,5,exp,5,2,close,1000,650,400,B,B,TRUE,502.487000000023,5fb079128b511d47995da086,1920,1080,1
SaccadeExp7_font12,17660,No,6,exp,5,4,close,1000,300,50,B,B,TRUE,384.939000000013,5fb079128b511d47995da086,1920,1080,1
SaccadeExp7_font12,17660,No,7,exp,5,1,close,1800,300,50,R,R,TRUE,655.085000000021,5fb079128b511d47995da086,1920,1080,1
SaccadeExp7_font12,17660,No,8,exp,5,2,close,1800,650,400,B,B,TRUE,891.588999999978,5fb079128b511d47995da086,1920,1080,1
SaccadeExp7_font12,17660,No,9,exp,5,3,close,1800,300,50,P,P,TRUE,715.755000000005,5fb079128b511d47995da086,1920,1080,1
SaccadeExp7_font12,17660,No,10,exp,5,2,close,1400,650,400,B,B,TRUE,710.579000000027,5fb079128b511d47995da086,1920,1080,1
SaccadeExp7_font12,17660,No,11,exp,5,4,close,1000,650,400,R,R,TRUE,513.053000000014,5fb079128b511d47995da086,1920,1080,1
SaccadeExp7_font12,17660,No,12,exp,5,1,close,200,650,400,R,R,TRUE,475.820999999996,5fb079128b511d47995da086,1920,1080,1
SaccadeExp7_font12,17660,No,13,exp,5,3,close,1400,650,400,P,P,TRUE,411.635000000009,5fb079128b511d47995da086,1920,1080,1
SaccadeExp7_font12,17660,No,14,exp,5,3,close,600,300,50,P,P,TRUE,903.066999999981,5fb079128b511d47995da086,1920,1080,1
SaccadeExp7_font12,17660,No,15,exp,5,2,close,600,300,50,R,R,TRUE,788.518999999971,5fb079128b511d47995da086,1920,1080,1
SaccadeExp7_font12,17660,No,16,exp,5,1,close,1400,300,50,B,B,TRUE,482.664999999979,5fb079128b511d47995da086,1920,1080,1
SaccadeExp7_font12,17660,No,17,exp,5,4,close,200,650,400,P,P,TRUE,444.765000000014,5fb079128b511d47995da086,1920,1080,1
SaccadeExp7_font12,17660,No,18,exp,5,1,close,1800,650,400,R,R,TRUE,657.927000000025,5fb079128b511d47995da086,1920,1080,1
SaccadeExp7_font12,17660,No,19,exp,5,3,close,600,650,400,P,P,TRUE,622.382999999973,5fb079128b511d47995da086,1920,1080,1
SaccadeExp7_font12,17660,No,20,exp,5,3,close,1000,650,400,P,P,TRUE,576.186999999976,5fb079128b511d47995da086,1920,1080,1
SaccadeExp7_font12,17660,No,21,exp,5,1,close,1400,650,400,P,P,TRUE,489.338999999978,5fb079128b511d47995da086,1920,1080,1
SaccadeExp7_font12,17660,No,22,exp,5,3,close,1400,300,50,R,R,TRUE,1029.80699999997,5fb079128b511d47995da086,1920,1080,1
SaccadeExp7_font12,17660,No,23,exp,5,4,close,1800,300,50,P,P,TRUE,485.978999999992,5fb079128b511d47995da086,1920,1080,1
SaccadeExp7_font12,17660,No,24,exp,5,2,close,200,300,50,P,P,TRUE,460.065000000002,5fb079128b511d47995da086,1920,1080,1
SaccadeExp7_font12,17660,No,25,exp,5,2,close,200,650,400,B,B,TRUE,353.496999999974,5fb079128b511d47995da086,1920,1080,1
SaccadeExp7_font12,17660,No,26,exp,5,2,close,1800,650,400,R,R,TRUE,622.989000000001,5fb079128b511d47995da086,1920,1080,1
SaccadeExp7_font12,17660,No,27,exp,5,2,close,1000,650,400,P,P,TRUE,431.793000000005,5fb079128b511d47995da086,1920,1080,1
SaccadeExp7_font12,17660,No,28,exp,5,3,close,1800,300,50,B,B,TRUE,1087.94099999999,5fb079128b511d47995da086,1920,1080,1
SaccadeExp7_font12,17660,No,29,exp,5,4,close,1000,300,50,P,P,TRUE,399.082999999984,5fb079128b511d47995da086,1920,1080,1
SaccadeExp7_font12,17660,No,30,exp,5,2,close,600,650,400,R,R,TRUE,388.52899999998,5fb079128b511d47995da086,1920,1080,1
SaccadeExp7_font12,17660,No,31,exp,5,1,close,1000,300,50,B,B,TRUE,734.642999999982,5fb079128b511d47995da086,1920,1080,1
SaccadeExp7_font12,17660,No,32,exp,5,4,close,1800,300,50,B,B,TRUE,352.803000000014,5fb079128b511d47995da086,1920,1080,1
SaccadeExp7_font12,17660,No,33,exp,5,3,close,600,300,50,B,B,TRUE,487.233000000007,5fb079128b511d47995da086,1920,1080,1
SaccadeExp7_font12,17660,No,34,exp,5,3,close,1800,650,400,P,P,TRUE,354.396999999997,5fb079128b511d47995da086,1920,1080,1
SaccadeExp7_font12,17660,No,35,exp,5,1,close,600,650,400,P,P,TRUE,360.841000000015,5fb079128b511d47995da086,1920,1080,1
SaccadeExp7_font12,17660,No,36,exp,5,3,close,1800,300,50,R,R,TRUE,500.319000000018,5fb079128b511d47995da086,1920,1080,1
SaccadeExp7_font12,17660,No,37,exp,5,3,close,1000,300,50,P,P,TRUE,389.771000000008,5fb079128b511d47995da086,1920,1080,1
SaccadeExp7_font12,17660,No,38,exp,5,4,close,1400,650,400,P,P,TRUE,397.914999999979,5fb079128b511d47995da086,1920,1080,1
SaccadeExp7_font12,17660,No,39,exp,5,4,close,200,300,50,B,B,TRUE,650.331000000006,5fb079128b511d47995da086,1920,1080,1
SaccadeExp7_font12,17660,No,40,exp,5,3,close,1400,300,50,B,B,TRUE,335.804999999993,5fb079128b511d47995da086,1920,1080,1
SaccadeExp7_font12,17660,No,41,exp,5,2,close,600,650,400,B,R,FALSE,736.914999999979,5fb079128b511d47995da086,1920,1080,1
SaccadeExp7_font12,17660,No,42,exp,5,1,close,1000,300,50,R,R,TRUE,386.043000000005,5fb079128b511d47995da086,1920,1080,1
SaccadeExp7_font12,17660,No,43,exp,5,3,close,200,650,400,B,B,TRUE,510.139000000025,5fb079128b511d47995da086,1920,1080,1
SaccadeExp7_font12,17660,No,44,exp,5,1,close,1400,300,50,R,R,TRUE,546.607000000018,5fb079128b511d47995da086,1920,1080,1
SaccadeExp7_font12,17660,No,45,exp,5,3,close,200,300,50,P,B,FALSE,1200.02899999998,5fb079128b511d47995da086,1920,1080,1
SaccadeExp7_font12,17660,No,46,exp,5,1,close,1000,650,400,P,P,TRUE,314.522999999986,5fb079128b511d47995da086,1920,1080,1
SaccadeExp7_font12,17660,No,47,exp,5,4,close,1000,300,50,R,R,TRUE,616.300999999978,5fb079128b511d47995da086,1920,1080,1
SaccadeExp7_font12,17660,No,48,exp,5,4,close,1000,650,400,B,B,TRUE,325.104999999981,5fb079128b511d47995da086,1920,1080,1
SaccadeExp7_font12,17660,No,49,exp,5,4,close,600,300,50,P,R,FALSE,658.867000000027,5fb079128b511d47995da086,1920,1080,1
SaccadeExp7_font12,17660,No,50,exp,5,1,close,600,300,50,P,P,TRUE,315.309000000008,5fb079128b511d47995da086,1920,1080,1
SaccadeExp7_font12,17660,No,51,exp,5,4,close,200,650,400,B,B,TRUE,489.069000000018,5fb079128b511d47995da086,1920,1080,1
SaccadeExp7_font12,17660,No,52,exp,5,2,close,1400,650,400,P,P,TRUE,390.217000000004,5fb079128b511d47995da086,1920,1080,1
SaccadeExp7_font12,17660,No,53,exp,5,3,close,1800,650,400,B,B,TRUE,382.376999999979,5fb079128b511d47995da086,1920,1080,1
SaccadeExp7_font12,17660,No,54,exp,5,3,close,200,650,400,R,P,FALSE,340.472999999998,5fb079128b511d47995da086,1920,1080,1
SaccadeExp7_font12,17660,No,55,exp,5,2,close,200,300,50,B,B,TRUE,501.553000000014,5fb079128b511d47995da086,1920,1080,1
SaccadeExp7_font12,17660,No,56,exp,5,4,close,1800,650,400,B,B,TRUE,417.050999999978,5fb079128b511d47995da086,1920,1080,1
SaccadeExp7_font12,17660,No,57,exp,5,1,close,1800,300,50,B,B,TRUE,571.864999999991,5fb079128b511d47995da086,1920,1080,1
SaccadeExp7_font12,17660,No,58,exp,5,3,close,1400,300,50,P,P,TRUE,477.668999999994,5fb079128b511d47995da086,1920,1080,1
SaccadeExp7_font12,17660,No,59,exp,5,1,close,1400,300,50,P,P,TRUE,426.468999999983,5fb079128b511d47995da086,1920,1080,1
SaccadeExp7_font12,17660,No,60,exp,5,2,close,1800,300,50,R,R,TRUE,530.282999999996,5fb079128b511d47995da086,1920,1080,1
SaccadeExp7_font12,17660,No,61,exp,5,4,close,200,300,50,R,R,TRUE,592.879000000015,5fb079128b511d47995da086,1920,1080,1
SaccadeExp7_font12,17660,No,62,exp,5,2,close,600,300,50,P,P,TRUE,445.984999999986,5fb079128b511d47995da086,1920,1080,1
SaccadeExp7_font12,17660,No,63,exp,5,2,close,1800,300,50,P,P,TRUE,452.467000000004,5fb079128b511d47995da086,1920,1080,1
SaccadeExp7_font12,17660,No,64,exp,5,2,close,200,300,50,R,R,TRUE,414.885000000009,5fb079128b511d47995da086,1920,1080,1
SaccadeExp7_font12,17660,No,65,exp,5,3,close,200,300,50,B,B,TRUE,318.635000000009,5fb079128b511d47995da086,1920,1080,1
SaccadeExp7_font12,17660,No,66,exp,5,2,close,1400,300,50,P,P,TRUE,353.429000000004,5fb079128b511d47995da086,1920,1080,1
SaccadeExp7_font12,17660,No,67,exp,5,4,close,600,650,400,B,B,TRUE,365.873000000021,5fb079128b511d47995da086,1920,1080,1
SaccadeExp7_font12,17660,No,68,exp,5,4,close,1400,650,400,B,B,TRUE,360.683000000019,5fb079128b511d47995da086,1920,1080,1
SaccadeExp7_font12,17660,No,69,exp,5,1,close,200,650,400,P,P,TRUE,340.110999999975,5fb079128b511d47995da086,1920,1080,1
SaccadeExp7_font12,17660,No,70,exp,5,2,close,600,300,50,B,B,TRUE,343.206999999995,5fb079128b511d47995da086,1920,1080,1
SaccadeExp7_font12,17660,No,71,exp,5,3,close,1800,650,400,R,R,TRUE,410.364999999991,5fb079128b511d47995da086,1920,1080,1
SaccadeExp7_font12,17660,No,72,exp,5,3,close,1400,650,400,B,B,TRUE,396.842999999993,5fb079128b511d47995da086,1920,1080,1
SaccadeExp7_font12,17660,No,73,exp,5,1,close,200,300,50,R,R,TRUE,328.25900000002,5fb079128b511d47995da086,1920,1080,1
SaccadeExp7_font12,17660,No,74,exp,5,1,close,200,300,50,B,B,TRUE,500.005000000005,5fb079128b511d47995da086,1920,1080,1
SaccadeExp7_font12,17660,No,75,exp,5,2,close,1400,300,50,B,B,TRUE,301.472999999998,5fb079128b511d47995da086,1920,1080,1
SaccadeExp7_font12,17660,No,76,exp,5,1,close,600,300,50,B,B,TRUE,320.900999999954,5fb079128b511d47995da086,1920,1080,1
SaccadeExp7_font12,17660,No,77,exp,5,3,close,1400,650,400,R,R,TRUE,478.709000000032,5fb079128b511d47995da086,1920,1080,1
SaccadeExp7_font12,17660,No,78,exp,5,3,close,1000,650,400,B,B,TRUE,337.841000000015,5fb079128b511d47995da086,1920,1080,1
SaccadeExp7_font12,17660,No,79,exp,5,4,close,1400,300,50,B,B,TRUE,296.969000000041,5fb079128b511d47995da086,1920,1080,1
SaccadeExp7_font12,17660,No,80,exp,5,4,close,1800,650,400,R,R,TRUE,492.459000000032,5fb079128b511d47995da086,1920,1080,1
SaccadeExp7_font12,17660,No,81,exp,5,3,close,200,650,400,P,P,TRUE,432.559000000008,5fb079128b511d47995da086,1920,1080,1
SaccadeExp7_font12,17660,No,82,exp,5,1,close,200,650,400,B,B,TRUE,368.657000000007,5fb079128b511d47995da086,1920,1080,1
SaccadeExp7_font12,17660,No,83,exp,5,2,close,200,650,400,P,P,TRUE,350.418999999994,5fb079128b511d47995da086,1920,1080,1
SaccadeExp7_font12,17660,No,84,exp,5,3,close,600,300,50,R,R,TRUE,372.849000000046,5fb079128b511d47995da086,1920,1080,1
SaccadeExp7_font12,17660,No,85,exp,5,2,close,1400,300,50,R,R,TRUE,445.645000000019,5fb079128b511d47995da086,1920,1080,1
SaccadeExp7_font12,17660,No,86,exp,5,4,close,1800,300,50,R,R,TRUE,562.126999999979,5fb079128b511d47995da086,1920,1080,1
SaccadeExp7_font12,17660,No,87,exp,5,4,close,1000,650,400,P,P,TRUE,394.594999999972,5fb079128b511d47995da086,1920,1080,1
SaccadeExp7_font12,17660,No,88,exp,5,4,close,1400,300,50,P,P,TRUE,413.724999999977,5fb079128b511d47995da086,1920,1080,1
SaccadeExp7_font12,17660,No,89,exp,5,2,close,1000,650,400,R,R,TRUE,641.52099999995,5fb079128b511d47995da086,1920,1080,1
SaccadeExp7_font12,17660,No,90,exp,5,3,close,200,300,50,R,R,TRUE,538.613000000012,5fb079128b511d47995da086,1920,1080,1
SaccadeExp7_font12,17660,No,91,exp,5,4,close,600,650,400,R,R,TRUE,622.731000000029,5fb079128b511d47995da086,1920,1080,1
SaccadeExp7_font12,17660,No,92,exp,5,3,close,600,650,400,R,R,TRUE,384.518999999971,5fb079128b511d47995da086,1920,1080,1
SaccadeExp7_font12,17660,No,93,exp,5,2,close,1800,650,400,P,P,TRUE,367.679000000004,5fb079128b511d47995da086,1920,1080,1
SaccadeExp7_font12,17660,No,94,exp,5,3,close,1000,300,50,R,R,TRUE,406.459000000032,5fb079128b511d47995da086,1920,1080,1
SaccadeExp7_font12,17660,No,95,exp,5,2,close,1000,300,50,R,R,TRUE,651.907000000007,5fb079128b511d47995da086,1920,1080,1
SaccadeExp7_font12,17660,No,96,exp,5,1,close,1800,650,400,P,P,TRUE,343.410999999964,5fb079128b511d47995da086,1920,1080,1
SaccadeExp7_font12,17660,No,97,exp,5,1,close,1000,650,400,B,B,TRUE,422.537000000011,5fb079128b511d47995da086,1920,1080,1
SaccadeExp7_font12,17660,No,98,exp,5,2,close,1800,300,50,B,B,TRUE,304.351000000024,5fb079128b511d47995da086,1920,1080,1
SaccadeExp7_font12,17660,No,99,exp,5,1,close,1000,650,400,R,R,TRUE,559.809000000008,5fb079128b511d47995da086,1920,1080,1
SaccadeExp7_font12,17660,No,100,exp,5,4,close,600,650,400,P,P,TRUE,456.594999999972,5fb079128b511d47995da086,1920,1080,1
SaccadeExp7_font12,17660,No,101,exp,5,1,close,600,300,50,R,R,TRUE,487.02899999998,5fb079128b511d47995da086,1920,1080,1
SaccadeExp7_font12,17660,No,102,exp,5,1,close,600,650,400,R,R,TRUE,362.145000000019,5fb079128b511d47995da086,1920,1080,1
SaccadeExp7_font12,17660,No,103,exp,5,1,close,1800,300,50,P,P,TRUE,410.957000000053,5fb079128b511d47995da086,1920,1080,1
SaccadeExp7_font12,17660,No,104,exp,5,1,close,1000,300,50,P,P,TRUE,492.738999999943,5fb079128b511d47995da086,1920,1080,1
SaccadeExp7_font12,17660,No,105,exp,5,4,close,200,650,400,R,R,TRUE,380.839000000036,5fb079128b511d47995da086,1920,1080,1
SaccadeExp7_font12,17660,No,106,exp,5,3,close,600,650,400,B,B,TRUE,471.951000000001,5fb079128b511d47995da086,1920,1080,1
SaccadeExp7_font12,17660,No,107,exp,5,2,close,200,650,400,R,R,TRUE,527.716999999946,5fb079128b511d47995da086,1920,1080,1
SaccadeExp7_font12,17660,No,108,exp,5,3,close,1000,650,400,R,R,TRUE,470.851000000024,5fb079128b511d47995da086,1920,1080,1
SaccadeExp7_font12,17660,No,109,exp,5,4,close,600,300,50,R,R,TRUE,332.618999999948,5fb079128b511d47995da086,1920,1080,1
SaccadeExp7_font12,17660,No,110,exp,5,4,close,1800,650,400,P,P,TRUE,354.777000000002,5fb079128b511d47995da086,1920,1080,1
SaccadeExp7_font12,17660,No,111,exp,5,4,close,1400,650,400,R,R,TRUE,352.253000000026,5fb079128b511d47995da086,1920,1080,1
SaccadeExp7_font12,17660,No,112,exp,5,1,close,200,300,50,P,P,TRUE,731.667000000016,5fb079128b511d47995da086,1920,1080,1
SaccadeExp7_font12,17660,No,113,exp,5,3,close,1000,300,50,B,B,TRUE,321.795000000042,5fb079128b511d47995da086,1920,1080,1
SaccadeExp7_font12,17660,No,114,exp,5,1,close,1400,650,400,R,R,TRUE,395.603000000003,5fb079128b511d47995da086,1920,1080,1
SaccadeExp7_font12,17660,No,115,exp,5,4,close,1400,300,50,R,R,TRUE,455.067000000039,5fb079128b511d47995da086,1920,1080,1
SaccadeExp7_font12,17660,No,116,exp,5,1,close,1800,650,400,B,B,TRUE,362.562999999966,5fb079128b511d47995da086,1920,1080,1
SaccadeExp7_font12,17660,No,117,exp,5,1,close,1400,650,400,B,B,TRUE,387.03899999999,5fb079128b511d47995da086,1920,1080,1
SaccadeExp7_font12,17660,No,118,exp,5,2,close,1000,300,50,B,B,TRUE,467.153000000049,5fb079128b511d47995da086,1920,1080,1
SaccadeExp7_font12,17660,No,119,exp,5,4,close,600,300,50,B,B,TRUE,302.920999999973,5fb079128b511d47995da086,1920,1080,1
SaccadeExp7_font12,17660,No,120,exp,5,2,close,1000,300,50,P,P,TRUE,267.364999999991,5fb079128b511d47995da086,1920,1080,1
SaccadeExp7_font12,17660,Pro,1,exp,1,1,same,200,650,400,R,R,TRUE,1013.67299999995,5fb079128b511d47995da086,1920,1080,1
SaccadeExp7_font12,17660,Pro,2,exp,1,1,same,1400,300,50,P,P,TRUE,392.494999999995,5fb079128b511d47995da086,1920,1080,1
SaccadeExp7_font12,17660,Pro,3,exp,4,4,same,200,650,400,R,R,TRUE,220.591000000015,5fb079128b511d47995da086,1920,1080,1
SaccadeExp7_font12,17660,Pro,4,exp,1,1,same,600,650,400,B,B,TRUE,404.363000000012,5fb079128b511d47995da086,1920,1080,1
SaccadeExp7_font12,17660,Pro,5,exp,3,3,same,200,300,50,B,B,TRUE,474.77899999998,5fb079128b511d47995da086,1920,1080,1
SaccadeExp7_font12,17660,Pro,6,exp,1,1,same,1400,650,400,B,B,TRUE,369.592999999993,5fb079128b511d47995da086,1920,1080,1
SaccadeExp7_font12,17660,Pro,7,exp,1,1,same,600,300,50,R,R,TRUE,307.35699999996,5fb079128b511d47995da086,1920,1080,1
SaccadeExp7_font12,17660,Pro,8,exp,2,2,same,1400,650,400,R,R,TRUE,382.831000000006,5fb079128b511d47995da086,1920,1080,1
SaccadeExp7_font12,17660,Pro,9,exp,3,3,same,1000,300,50,P,P,TRUE,338.944999999949,5fb079128b511d47995da086,1920,1080,1
SaccadeExp7_font12,17660,Pro,10,exp,3,3,same,1400,300,50,P,P,TRUE,300.072999999975,5fb079128b511d47995da086,1920,1080,1
SaccadeExp7_font12,17660,Pro,11,exp,1,1,same,1400,300,50,B,B,TRUE,454.533000000054,5fb079128b511d47995da086,1920,1080,1
SaccadeExp7_font12,17660,Pro,12,exp,4,4,same,200,300,50,B,B,TRUE,423.951000000001,5fb079128b511d47995da086,1920,1080,1
SaccadeExp7_font12,17660,Pro,13,exp,4,4,same,600,650,400,B,B,TRUE,308.731000000029,5fb079128b511d47995da086,1920,1080,1
SaccadeExp7_font12,17660,Pro,14,exp,2,2,same,1000,300,50,P,P,TRUE,364.508999999962,5fb079128b511d47995da086,1920,1080,1
SaccadeExp7_font12,17660,Pro,15,exp,3,3,same,1400,650,400,B,B,TRUE,279.319000000018,5fb079128b511d47995da086,1920,1080,1
SaccadeExp7_font12,17660,Pro,16,exp,4,4,same,1000,650,400,P,P,TRUE,162.44299999997,5fb079128b511d47995da086,1920,1080,1
SaccadeExp7_font12,17660,Pro,17,exp,3,3,same,1400,300,50,R,R,TRUE,930.231000000029,5fb079128b511d47995da086,1920,1080,1
SaccadeExp7_font12,17660,Pro,18,exp,2,2,same,600,300,50,B,B,TRUE,380.351000000024,5fb079128b511d47995da086,1920,1080,1
SaccadeExp7_font12,17660,Pro,19,exp,2,2,same,1400,300,50,P,P,TRUE,314.481000000029,5fb079128b511d47995da086,1920,1080,1
SaccadeExp7_font12,17660,Pro,20,exp,3,3,same,600,300,50,P,P,TRUE,263.243000000017,5fb079128b511d47995da086,1920,1080,1
SaccadeExp7_font12,17660,Pro,21,exp,2,2,same,1800,650,400,B,B,TRUE,349.064999999944,5fb079128b511d47995da086,1920,1080,1
SaccadeExp7_font12,17660,Pro,22,exp,1,1,same,1800,300,50,B,B,TRUE,431.542999999947,5fb079128b511d47995da086,1920,1080,1
SaccadeExp7_font12,17660,Pro,23,exp,2,2,same,600,650,400,B,B,TRUE,390.657000000007,5fb079128b511d47995da086,1920,1080,1
SaccadeExp7_font12,17660,Pro,24,exp,2,2,same,200,300,50,B,B,TRUE,356.738999999943,5fb079128b511d47995da086,1920,1080,1
SaccadeExp7_font12,17660,Pro,25,exp,1,1,same,600,650,400,R,R,TRUE,653.182999999961,5fb079128b511d47995da086,1920,1080,1
SaccadeExp7_font12,17660,Pro,26,exp,2,2,same,1400,650,400,P,P,TRUE,415.670999999973,5fb079128b511d47995da086,1920,1080,1
SaccadeExp7_font12,17660,Pro,27,exp,4,4,same,1000,650,400,B,B,TRUE,297.466999999946,5fb079128b511d47995da086,1920,1080,1
SaccadeExp7_font12,17660,Pro,28,exp,2,2,same,1800,300,50,R,R,TRUE,475.94299999997,5fb079128b511d47995da086,1920,1080,1
SaccadeExp7_font12,17660,Pro,29,exp,1,1,same,1800,650,400,P,P,TRUE,240.773000000045,5fb079128b511d47995da086,1920,1080,1
SaccadeExp7_font12,17660,Pro,30,exp,4,4,same,1800,650,400,B,B,TRUE,343.927000000025,5fb079128b511d47995da086,1920,1080,1
SaccadeExp7_font12,17660,Pro,31,exp,4,4,same,1400,650,400,B,B,TRUE,321.069000000018,5fb079128b511d47995da086,1920,1080,1
SaccadeExp7_font12,17660,Pro,32,exp,3,3,same,1400,650,400,R,R,TRUE,365.876999999979,5fb079128b511d47995da086,1920,1080,1
SaccadeExp7_font12,17660,Pro,33,exp,2,2,same,1000,650,400,P,P,TRUE,253.670999999973,5fb079128b511d47995da086,1920,1080,1
SaccadeExp7_font12,17660,Pro,34,exp,3,3,same,200,300,50,P,P,TRUE,326.081000000006,5fb079128b511d47995da086,1920,1080,1
SaccadeExp7_font12,17660,Pro,35,exp,4,4,same,600,300,50,B,B,TRUE,338.842999999993,5fb079128b511d47995da086,1920,1080,1
SaccadeExp7_font12,17660,Pro,36,exp,4,4,same,1800,650,400,P,P,TRUE,447.001000000047,5fb079128b511d47995da086,1920,1080,1
SaccadeExp7_font12,17660,Pro,37,exp,4,4,same,200,300,50,P,P,TRUE,296.418999999994,5fb079128b511d47995da086,1920,1080,1
SaccadeExp7_font12,17660,Pro,38,exp,4,4,same,1400,300,50,P,P,TRUE,284.878999999957,5fb079128b511d47995da086,1920,1080,1
SaccadeExp7_font12,17660,Pro,39,exp,1,1,same,1400,650,400,R,R,TRUE,477.018999999971,5fb079128b511d47995da086,1920,1080,1
SaccadeExp7_font12,17660,Pro,40,exp,3,3,same,200,650,400,R,R,TRUE,469.785000000033,5fb079128b511d47995da086,1920,1080,1
SaccadeExp7_font12,17660,Pro,41,exp,2,2,same,200,650,400,R,R,TRUE,502.550999999978,5fb079128b511d47995da086,1920,1080,1
SaccadeExp7_font12,17660,Pro,42,exp,4,4,same,1400,650,400,P,P,TRUE,194.033000000054,5fb079128b511d47995da086,1920,1080,1
SaccadeExp7_font12,17660,Pro,43,exp,1,1,same,200,300,50,R,P,FALSE,272.10699999996,5fb079128b511d47995da086,1920,1080,1
SaccadeExp7_font12,17660,Pro,44,exp,4,4,same,600,650,400,R,R,TRUE,178.881000000052,5fb079128b511d47995da086,1920,1080,1
SaccadeExp7_font12,17660,Pro,45,exp,2,2,same,1000,300,50,R,R,TRUE,335.653000000049,5fb079128b511d47995da086,1920,1080,1
SaccadeExp7_font12,17660,Pro,46,exp,1,1,same,1800,650,400,R,R,TRUE,178.810999999987,5fb079128b511d47995da086,1920,1080,1
SaccadeExp7_font12,17660,Pro,47,exp,2,2,same,200,650,400,B,B,TRUE,419.898999999976,5fb079128b511d47995da086,1920,1080,1
SaccadeExp7_font12,17660,Pro,48,exp,1,1,same,600,300,50,P,P,TRUE,290.665000000037,5fb079128b511d47995da086,1920,1080,1
SaccadeExp7_font12,17660,Pro,49,exp,1,1,same,1000,300,50,P,P,TRUE,369.775000000023,5fb079128b511d47995da086,1920,1080,1
SaccadeExp7_font12,17660,Pro,50,exp,2,2,same,1400,650,400,B,B,TRUE,375.584999999963,5fb079128b511d47995da086,1920,1080,1
SaccadeExp7_font12,17660,Pro,51,exp,3,3,same,600,650,400,P,P,TRUE,303.363000000012,5fb079128b511d47995da086,1920,1080,1
SaccadeExp7_font12,17660,Pro,52,exp,2,2,same,1400,300,50,R,R,TRUE,381.822999999975,5fb079128b511d47995da086,1920,1080,1
SaccadeExp7_font12,17660,Pro,53,exp,3,3,same,1000,650,400,B,B,TRUE,371.951000000001,5fb079128b511d47995da086,1920,1080,1
SaccadeExp7_font12,17660,Pro,54,exp,4,4,same,1000,300,50,R,R,TRUE,352.731000000029,5fb079128b511d47995da086,1920,1080,1
SaccadeExp7_font12,17660,Pro,55,exp,1,1,same,200,300,50,P,P,TRUE,470.145000000019,5fb079128b511d47995da086,1920,1080,1
SaccadeExp7_font12,17660,Pro,56,exp,1,1,same,600,300,50,B,B,TRUE,323.912999999942,5fb079128b511d47995da086,1920,1080,1
SaccadeExp7_font12,17660,Pro,57,exp,2,2,same,200,650,400,P,P,TRUE,247.672999999952,5fb079128b511d47995da086,1920,1080,1
SaccadeExp7_font12,17660,Pro,58,exp,3,3,same,1800,650,400,P,P,TRUE,188.160999999964,5fb079128b511d47995da086,1920,1080,1
SaccadeExp7_font12,17660,Pro,59,exp,1,1,same,600,650,400,P,P,TRUE,340.265000000014,5fb079128b511d47995da086,1920,1080,1
SaccadeExp7_font12,17660,Pro,60,exp,2,2,same,1000,650,400,B,B,TRUE,305.390999999945,5fb079128b511d47995da086,1920,1080,1
SaccadeExp7_font12,17660,Pro,61,exp,3,3,same,200,650,400,P,P,TRUE,491.403000000049,5fb079128b511d47995da086,1920,1080,1
SaccadeExp7_font12,17660,Pro,62,exp,4,4,same,1800,650,400,R,R,TRUE,550.567000000039,5fb079128b511d47995da086,1920,1080,1
SaccadeExp7_font12,17660,Pro,63,exp,4,4,same,1800,300,50,P,P,TRUE,276.052999999956,5fb079128b511d47995da086,1920,1080,1
SaccadeExp7_font12,17660,Pro,64,exp,2,2,same,1800,650,400,P,P,TRUE,262.875,5fb079128b511d47995da086,1920,1080,1
SaccadeExp7_font12,17660,Pro,65,exp,4,4,same,1000,650,400,R,R,TRUE,263.665000000037,5fb079128b511d47995da086,1920,1080,1
SaccadeExp7_font12,17660,Pro,66,exp,1,1,same,1000,300,50,R,P,FALSE,269.440999999992,5fb079128b511d47995da086,1920,1080,1
SaccadeExp7_font12,17660,Pro,67,exp,4,4,same,1400,300,50,R,R,TRUE,270.233000000007,5fb079128b511d47995da086,1920,1080,1
SaccadeExp7_font12,17660,Pro,68,exp,1,1,same,1800,300,50,P,P,TRUE,354.040999999968,5fb079128b511d47995da086,1920,1080,1
SaccadeExp7_font12,17660,Pro,69,exp,2,2,same,1800,650,400,R,R,TRUE,774.866999999969,5fb079128b511d47995da086,1920,1080,1
SaccadeExp7_font12,17660,Pro,70,exp,1,1,same,1400,650,400,P,P,TRUE,454.69299999997,5fb079128b511d47995da086,1920,1080,1
SaccadeExp7_font12,17660,Pro,71,exp,1,1,same,1000,650,400,B,B,TRUE,243.157000000007,5fb079128b511d47995da086,1920,1080,1
SaccadeExp7_font12,17660,Pro,72,exp,1,1,same,200,300,50,B,B,TRUE,590.233000000007,5fb079128b511d47995da086,1920,1080,1
SaccadeExp7_font12,17660,Pro,73,exp,4,4,same,600,650,400,P,P,TRUE,395.353000000003,5fb079128b511d47995da086,1920,1080,1
SaccadeExp7_font12,17660,Pro,74,exp,4,4,same,200,300,50,R,R,TRUE,448.768999999971,5fb079128b511d47995da086,1920,1080,1
SaccadeExp7_font12,17660,Pro,75,exp,3,3,same,600,300,50,B,B,TRUE,369.20299999998,5fb079128b511d47995da086,1920,1080,1
SaccadeExp7_font12,17660,Pro,76,exp,3,3,same,1800,300,50,R,R,TRUE,290.015000000014,5fb079128b511d47995da086,1920,1080,1
SaccadeExp7_font12,17660,Pro,77,exp,3,3,same,1000,300,50,R,R,TRUE,258.125,5fb079128b511d47995da086,1920,1080,1
SaccadeExp7_font12,17660,Pro,78,exp,2,2,same,1800,300,50,P,P,TRUE,564.599000000046,5fb079128b511d47995da086,1920,1080,1
SaccadeExp7_font12,17660,Pro,79,exp,2,2,same,200,300,50,R,R,TRUE,559.354999999981,5fb079128b511d47995da086,1920,1080,1
SaccadeExp7_font12,17660,Pro,80,exp,4,4,same,1400,300,50,B,B,TRUE,513.824999999953,5fb079128b511d47995da086,1920,1080,1
SaccadeExp7_font12,17660,Pro,81,exp,3,3,same,1000,650,400,R,R,TRUE,630.625,5fb079128b511d47995da086,1920,1080,1
SaccadeExp7_font12,17660,Pro,82,exp,1,1,same,1000,650,400,P,P,TRUE,641.763000000035,5fb079128b511d47995da086,1920,1080,1
SaccadeExp7_font12,17660,Pro,83,exp,4,4,same,200,650,400,P,P,TRUE,672.868999999948,5fb079128b511d47995da086,1920,1080,1
SaccadeExp7_font12,17660,Pro,84,exp,1,1,same,1800,300,50,R,R,TRUE,506.69299999997,5fb079128b511d47995da086,1920,1080,1
SaccadeExp7_font12,17660,Pro,85,exp,1,1,same,1800,650,400,B,B,TRUE,449.190999999992,5fb079128b511d47995da086,1920,1080,1
SaccadeExp7_font12,17660,Pro,86,exp,3,3,same,600,650,400,B,B,TRUE,458.638999999966,5fb079128b511d47995da086,1920,1080,1
SaccadeExp7_font12,17660,Pro,87,exp,3,3,same,1800,650,400,B,B,TRUE,521.135000000009,5fb079128b511d47995da086,1920,1080,1
SaccadeExp7_font12,17660,Pro,88,exp,3,3,same,1000,650,400,P,P,TRUE,526.935000000056,5fb079128b511d47995da086,1920,1080,1
SaccadeExp7_font12,17660,Pro,89,exp,4,4,same,1800,300,50,R,R,TRUE,561.087000000058,5fb079128b511d47995da086,1920,1080,1
SaccadeExp7_font12,17660,Pro,90,exp,2,2,same,1800,300,50,B,B,TRUE,491.907000000007,5fb079128b511d47995da086,1920,1080,1
SaccadeExp7_font12,17660,Pro,91,exp,3,3,same,1000,300,50,B,B,TRUE,439.025000000023,5fb079128b511d47995da086,1920,1080,1
SaccadeExp7_font12,17660,Pro,92,exp,3,3,same,1800,300,50,P,P,TRUE,739.172999999952,5fb079128b511d47995da086,1920,1080,1
SaccadeExp7_font12,17660,Pro,93,exp,4,4,same,1400,650,400,R,R,TRUE,632.331000000006,5fb079128b511d47995da086,1920,1080,1
SaccadeExp7_font12,17660,Pro,94,exp,3,3,same,200,300,50,R,R,TRUE,556.422999999952,5fb079128b511d47995da086,1920,1080,1
SaccadeExp7_font12,17660,Pro,95,exp,2,2,same,600,650,400,P,P,TRUE,714.875,5fb079128b511d47995da086,1920,1080,1
SaccadeExp7_font12,17660,Pro,96,exp,4,4,same,200,650,400,B,B,TRUE,499.651000000071,5fb079128b511d47995da086,1920,1080,1
SaccadeExp7_font12,17660,Pro,97,exp,4,4,same,1800,300,50,B,B,TRUE,348.135000000009,5fb079128b511d47995da086,1920,1080,1
SaccadeExp7_font12,17660,Pro,98,exp,1,1,same,1000,650,400,R,R,TRUE,446.594999999972,5fb079128b511d47995da086,1920,1080,1
SaccadeExp7_font12,17660,Pro,99,exp,2,2,same,1000,650,400,R,R,TRUE,200.058999999892,5fb079128b511d47995da086,1920,1080,1
SaccadeExp7_font12,17660,Pro,100,exp,3,3,same,600,300,50,R,R,TRUE,315.483000000007,5fb079128b511d47995da086,1920,1080,1
SaccadeExp7_font12,17660,Pro,101,exp,4,4,same,1000,300,50,P,P,TRUE,301.26099999994,5fb079128b511d47995da086,1920,1080,1
SaccadeExp7_font12,17660,Pro,102,exp,1,1,same,1400,300,50,R,R,TRUE,305.720999999903,5fb079128b511d47995da086,1920,1080,1
SaccadeExp7_font12,17660,Pro,103,exp,2,2,same,200,300,50,P,P,TRUE,262.132999999914,5fb079128b511d47995da086,1920,1080,1
SaccadeExp7_font12,17660,Pro,104,exp,3,3,same,1400,650,400,P,P,TRUE,393.604999999981,5fb079128b511d47995da086,1920,1080,1
SaccadeExp7_font12,17660,Pro,105,exp,2,2,same,1400,300,50,B,B,TRUE,349.735000000102,5fb079128b511d47995da086,1920,1080,1
SaccadeExp7_font12,17660,Pro,106,exp,2,2,same,600,300,50,R,R,TRUE,274.165000000037,5fb079128b511d47995da086,1920,1080,1
SaccadeExp7_font12,17660,Pro,107,exp,4,4,same,1000,300,50,B,B,TRUE,306.941000000108,5fb079128b511d47995da086,1920,1080,1
SaccadeExp7_font12,17660,Pro,108,exp,1,1,same,200,650,400,P,P,TRUE,200.367000000086,5fb079128b511d47995da086,1920,1080,1
SaccadeExp7_font12,17660,Pro,109,exp,3,3,same,1800,650,400,R,R,TRUE,333.852999999886,5fb079128b511d47995da086,1920,1080,1
SaccadeExp7_font12,17660,Pro,110,exp,1,1,same,200,650,400,B,B,TRUE,282.946999999927,5fb079128b511d47995da086,1920,1080,1
SaccadeExp7_font12,17660,Pro,111,exp,2,2,same,600,650,400,R,R,TRUE,334.054999999935,5fb079128b511d47995da086,1920,1080,1
SaccadeExp7_font12,17660,Pro,112,exp,2,2,same,1000,300,50,B,B,TRUE,441.166999999899,5fb079128b511d47995da086,1920,1080,1
SaccadeExp7_font12,17660,Pro,113,exp,3,3,same,600,650,400,R,R,TRUE,194.614999999991,5fb079128b511d47995da086,1920,1080,1
SaccadeExp7_font12,17660,Pro,114,exp,4,4,same,600,300,50,P,P,TRUE,319.705000000075,5fb079128b511d47995da086,1920,1080,1
SaccadeExp7_font12,17660,Pro,115,exp,4,4,same,600,300,50,R,R,TRUE,288.466999999946,5fb079128b511d47995da086,1920,1080,1
SaccadeExp7_font12,17660,Pro,116,exp,1,1,same,1000,300,50,B,B,TRUE,308.577000000048,5fb079128b511d47995da086,1920,1080,1
SaccadeExp7_font12,17660,Pro,117,exp,3,3,same,1400,300,50,B,B,TRUE,330.037000000011,5fb079128b511d47995da086,1920,1080,1
SaccadeExp7_font12,17660,Pro,118,exp,3,3,same,200,650,400,B,B,TRUE,359.131000000052,5fb079128b511d47995da086,1920,1080,1
SaccadeExp7_font12,17660,Pro,119,exp,2,2,same,600,300,50,P,P,TRUE,326.895000000019,5fb079128b511d47995da086,1920,1080,1
SaccadeExp7_font12,17660,Pro,120,exp,3,3,same,1800,300,50,B,B,TRUE,259.705000000075,5fb079128b511d47995da086,1920,1080,1
SaccadeExp7_font12,17660,Anti,1,exp,1,2,opposite,1400,300,50,B,P,FALSE,815.503000000026,5fb079128b511d47995da086,1920,1080,1
SaccadeExp7_font12,17660,Anti,2,exp,2,1,opposite,1800,650,400,B,P,FALSE,515.347000000067,5fb079128b511d47995da086,1920,1080,1
SaccadeExp7_font12,17660,Anti,3,exp,4,3,opposite,200,650,400,P,P,TRUE,250.114999999991,5fb079128b511d47995da086,1920,1080,1
SaccadeExp7_font12,17660,Anti,4,exp,2,1,opposite,1000,650,400,R,P,FALSE,334.570999999996,5fb079128b511d47995da086,1920,1080,1
SaccadeExp7_font12,17660,Anti,5,exp,1,2,opposite,1400,300,50,P,R,FALSE,672.699000000022,5fb079128b511d47995da086,1920,1080,1
SaccadeExp7_font12,17660,Anti,6,exp,3,4,opposite,1800,300,50,R,R,TRUE,1006.52300000004,5fb079128b511d47995da086,1920,1080,1
SaccadeExp7_font12,17660,Anti,7,exp,2,1,opposite,200,300,50,R,P,FALSE,627.962999999989,5fb079128b511d47995da086,1920,1080,1
SaccadeExp7_font12,17660,Anti,8,exp,2,1,opposite,600,650,400,B,P,FALSE,385.750999999931,5fb079128b511d47995da086,1920,1080,1
SaccadeExp7_font12,17660,Anti,9,exp,4,3,opposite,600,300,50,R,B,FALSE,386.516999999993,5fb079128b511d47995da086,1920,1080,1
SaccadeExp7_font12,17660,Anti,10,exp,2,1,opposite,200,650,400,P,P,TRUE,385.612999999896,5fb079128b511d47995da086,1920,1080,1
SaccadeExp7_font12,17660,Anti,11,exp,3,4,opposite,600,300,50,R,R,TRUE,743.710999999894,5fb079128b511d47995da086,1920,1080,1
SaccadeExp7_font12,17660,Anti,12,exp,3,4,opposite,1400,650,400,B,B,TRUE,416.537000000011,5fb079128b511d47995da086,1920,1080,1
SaccadeExp7_font12,17660,Anti,13,exp,3,4,opposite,600,650,400,R,P,FALSE,717.317000000039,5fb079128b511d47995da086,1920,1080,1
SaccadeExp7_font12,17660,Anti,14,exp,4,3,opposite,1800,650,400,R,R,TRUE,564.15699999989,5fb079128b511d47995da086,1920,1080,1
SaccadeExp7_font12,17660,Anti,15,exp,4,3,opposite,1400,650,400,B,B,TRUE,413.975000000093,5fb079128b511d47995da086,1920,1080,1
SaccadeExp7_font12,17660,Anti,16,exp,1,2,opposite,600,650,400,P,P,TRUE,640.754999999888,5fb079128b511d47995da086,1920,1080,1
SaccadeExp7_font12,17660,Anti,17,exp,3,4,opposite,600,300,50,P,P,TRUE,856.862999999896,5fb079128b511d47995da086,1920,1080,1
SaccadeExp7_font12,17660,Anti,18,exp,2,1,opposite,1000,300,50,B,R,FALSE,990.328999999911,5fb079128b511d47995da086,1920,1080,1
SaccadeExp7_font12,17660,Anti,19,exp,2,1,opposite,1400,650,400,B,B,TRUE,450.496999999974,5fb079128b511d47995da086,1920,1080,1
SaccadeExp7_font12,17660,Anti,20,exp,3,4,opposite,600,300,50,B,B,TRUE,745.931000000099,5fb079128b511d47995da086,1920,1080,1
SaccadeExp7_font12,17660,Anti,21,exp,1,2,opposite,1400,650,400,B,B,TRUE,371.08899999992,5fb079128b511d47995da086,1920,1080,1
SaccadeExp7_font12,17660,Anti,22,exp,3,4,opposite,200,650,400,P,P,TRUE,423.851000000024,5fb079128b511d47995da086,1920,1080,1
SaccadeExp7_font12,17660,Anti,23,exp,3,4,opposite,1400,650,400,R,R,TRUE,640.662999999942,5fb079128b511d47995da086,1920,1080,1
SaccadeExp7_font12,17660,Anti,24,exp,3,4,opposite,1000,650,400,P,P,TRUE,432.800999999978,5fb079128b511d47995da086,1920,1080,1
SaccadeExp7_font12,17660,Anti,25,exp,1,2,opposite,600,300,50,B,R,FALSE,627.901000000071,5fb079128b511d47995da086,1920,1080,1
SaccadeExp7_font12,17660,Anti,26,exp,3,4,opposite,1000,650,400,R,P,FALSE,880.705000000075,5fb079128b511d47995da086,1920,1080,1
SaccadeExp7_font12,17660,Anti,27,exp,4,3,opposite,1000,300,50,R,R,TRUE,473.83899999992,5fb079128b511d47995da086,1920,1080,1
SaccadeExp7_font12,17660,Anti,28,exp,1,2,opposite,600,650,400,R,R,TRUE,375.621000000043,5fb079128b511d47995da086,1920,1080,1
SaccadeExp7_font12,17660,Anti,29,exp,2,1,opposite,600,650,400,R,R,TRUE,330.398999999976,5fb079128b511d47995da086,1920,1080,1
SaccadeExp7_font12,17660,Anti,30,exp,1,2,opposite,1800,300,50,B,P,FALSE,638.543000000063,5fb079128b511d47995da086,1920,1080,1
SaccadeExp7_font12,17660,Anti,31,exp,2,1,opposite,200,650,400,R,R,TRUE,424.648999999976,5fb079128b511d47995da086,1920,1080,1
SaccadeExp7_font12,17660,Anti,32,exp,4,3,opposite,600,650,400,B,B,TRUE,273.429000000004,5fb079128b511d47995da086,1920,1080,1
SaccadeExp7_font12,17660,Anti,33,exp,3,4,opposite,1800,650,400,P,P,TRUE,360.250999999931,5fb079128b511d47995da086,1920,1080,1
SaccadeExp7_font12,17660,Anti,34,exp,4,3,opposite,1000,650,400,R,R,TRUE,271.044999999925,5fb079128b511d47995da086,1920,1080,1
SaccadeExp7_font12,17660,Anti,35,exp,1,2,opposite,1400,650,400,P,P,TRUE,312.851000000024,5fb079128b511d47995da086,1920,1080,1
SaccadeExp7_font12,17660,Anti,36,exp,4,3,opposite,1000,650,400,P,P,TRUE,311.642999999924,5fb079128b511d47995da086,1920,1080,1
SaccadeExp7_font12,17660,Anti,37,exp,1,2,opposite,1800,300,50,P,P,TRUE,649.45299999998,5fb079128b511d47995da086,1920,1080,1
SaccadeExp7_font12,17660,Anti,38,exp,3,4,opposite,1800,650,400,R,P,FALSE,198.956999999937,5fb079128b511d47995da086,1920,1080,1
SaccadeExp7_font12,17660,Anti,39,exp,3,4,opposite,200,650,400,B,B,TRUE,348.378999999957,5fb079128b511d47995da086,1920,1080,1
SaccadeExp7_font12,17660,Anti,40,exp,2,1,opposite,1800,300,50,B,R,FALSE,443.857000000076,5fb079128b511d47995da086,1920,1080,1
SaccadeExp7_font12,17660,Anti,41,exp,1,2,opposite,200,300,50,B,P,FALSE,604.941000000108,5fb079128b511d47995da086,1920,1080,1
SaccadeExp7_font12,17660,Anti,42,exp,3,4,opposite,1800,300,50,B,R,FALSE,652.429000000004,5fb079128b511d47995da086,1920,1080,1
SaccadeExp7_font12,17660,Anti,43,exp,4,3,opposite,1400,650,400,P,P,TRUE,347.916999999899,5fb079128b511d47995da086,1920,1080,1
SaccadeExp7_font12,17660,Anti,44,exp,2,1,opposite,1000,300,50,P,R,FALSE,461.362999999896,5fb079128b511d47995da086,1920,1080,1
SaccadeExp7_font12,17660,Anti,45,exp,1,2,opposite,600,650,400,B,B,TRUE,377.145000000019,5fb079128b511d47995da086,1920,1080,1
SaccadeExp7_font12,17660,Anti,46,exp,3,4,opposite,1800,300,50,P,P,TRUE,381.956999999937,5fb079128b511d47995da086,1920,1080,1
SaccadeExp7_font12,17660,Anti,47,exp,3,4,opposite,1400,300,50,B,B,TRUE,1131.08700000006,5fb079128b511d47995da086,1920,1080,1
SaccadeExp7_font12,17660,Anti,48,exp,4,3,opposite,1800,650,400,P,P,TRUE,234.277000000002,5fb079128b511d47995da086,1920,1080,1
SaccadeExp7_font12,17660,Anti,49,exp,3,4,opposite,1000,300,50,R,R,TRUE,447.719000000041,5fb079128b511d47995da086,1920,1080,1
SaccadeExp7_font12,17660,Anti,50,exp,1,2,opposite,1000,650,400,B,B,TRUE,327.182999999961,5fb079128b511d47995da086,1920,1080,1
SaccadeExp7_font12,17660,Anti,51,exp,2,1,opposite,1800,300,50,P,P,TRUE,485.993000000017,5fb079128b511d47995da086,1920,1080,1
SaccadeExp7_font12,17660,Anti,52,exp,2,1,opposite,1800,300,50,R,R,TRUE,401.476999999955,5fb079128b511d47995da086,1920,1080,1
SaccadeExp7_font12,17660,Anti,53,exp,2,1,opposite,1400,300,50,R,R,TRUE,554.941000000108,5fb079128b511d47995da086,1920,1080,1
SaccadeExp7_font12,17660,Anti,54,exp,4,3,opposite,200,300,50,R,P,FALSE,576.362999999896,5fb079128b511d47995da086,1920,1080,1
SaccadeExp7_font12,17660,Anti,55,exp,2,1,opposite,200,300,50,P,B,FALSE,830.118999999948,5fb079128b511d47995da086,1920,1080,1
SaccadeExp7_font12,17660,Anti,56,exp,1,2,opposite,1000,300,50,B,R,FALSE,1067.25099999993,5fb079128b511d47995da086,1920,1080,1
SaccadeExp7_font12,17660,Anti,57,exp,3,4,opposite,200,300,50,P,P,TRUE,586.027000000002,5fb079128b511d47995da086,1920,1080,1
SaccadeExp7_font12,17660,Anti,58,exp,4,3,opposite,1800,300,50,R,R,TRUE,1109.1810000001,5fb079128b511d47995da086,1920,1080,1
SaccadeExp7_font12,17660,Anti,59,exp,4,3,opposite,1400,300,50,P,P,TRUE,829.672999999952,5fb079128b511d47995da086,1920,1080,1
SaccadeExp7_font12,17660,Anti,60,exp,4,3,opposite,600,300,50,P,B,FALSE,701.789000000106,5fb079128b511d47995da086,1920,1080,1
SaccadeExp7_font12,17660,Anti,61,exp,4,3,opposite,200,650,400,R,R,TRUE,348.354999999981,5fb079128b511d47995da086,1920,1080,1
SaccadeExp7_font12,17660,Anti,62,exp,1,2,opposite,200,650,400,R,R,TRUE,484.783000000054,5fb079128b511d47995da086,1920,1080,1
SaccadeExp7_font12,17660,Anti,63,exp,2,1,opposite,200,650,400,B,B,TRUE,410.882999999914,5fb079128b511d47995da086,1920,1080,1
SaccadeExp7_font12,17660,Anti,64,exp,4,3,opposite,200,300,50,B,B,TRUE,874.299000000115,5fb079128b511d47995da086,1920,1080,1
SaccadeExp7_font12,17660,Anti,65,exp,2,1,opposite,1400,650,400,R,R,TRUE,606.128999999957,5fb079128b511d47995da086,1920,1080,1
SaccadeExp7_font12,17660,Anti,66,exp,2,1,opposite,1400,300,50,P,P,TRUE,463.601000000024,5fb079128b511d47995da086,1920,1080,1
SaccadeExp7_font12,17660,Anti,67,exp,3,4,opposite,1400,650,400,P,P,TRUE,270.415000000037,5fb079128b511d47995da086,1920,1080,1
SaccadeExp7_font12,17660,Anti,68,exp,2,1,opposite,1000,650,400,P,P,TRUE,296.205000000075,5fb079128b511d47995da086,1920,1080,1
SaccadeExp7_font12,17660,Anti,69,exp,2,1,opposite,1000,300,50,R,B,FALSE,812.314999999944,5fb079128b511d47995da086,1920,1080,1
SaccadeExp7_font12,17660,Anti,70,exp,4,3,opposite,1400,300,50,B,R,FALSE,1123.46299999999,5fb079128b511d47995da086,1920,1080,1
SaccadeExp7_font12,17660,Anti,71,exp,2,1,opposite,600,300,50,P,R,FALSE,1169.25699999998,5fb079128b511d47995da086,1920,1080,1
SaccadeExp7_font12,17660,Anti,72,exp,3,4,opposite,200,300,50,R,R,TRUE,885.371000000043,5fb079128b511d47995da086,1920,1080,1
SaccadeExp7_font12,17660,Anti,73,exp,3,4,opposite,600,650,400,B,R,FALSE,1630.50300000003,5fb079128b511d47995da086,1920,1080,1
SaccadeExp7_font12,17660,Anti,74,exp,2,1,opposite,1000,650,400,B,B,TRUE,810.681000000099,5fb079128b511d47995da086,1920,1080,1
SaccadeExp7_font12,17660,Anti,75,exp,4,3,opposite,200,300,50,P,R,FALSE,712.112999999896,5fb079128b511d47995da086,1920,1080,1
SaccadeExp7_font12,17660,Anti,76,exp,1,2,opposite,600,300,50,P,R,FALSE,572.891000000061,5fb079128b511d47995da086,1920,1080,1
SaccadeExp7_font12,17660,Anti,77,exp,4,3,opposite,1800,650,400,B,B,TRUE,879.725000000093,5fb079128b511d47995da086,1920,1080,1
SaccadeExp7_font12,17660,Anti,78,exp,4,3,opposite,1800,300,50,B,B,TRUE,566.891000000061,5fb079128b511d47995da086,1920,1080,1
SaccadeExp7_font12,17660,Anti,79,exp,2,1,opposite,1800,650,400,P,P,TRUE,407.725000000093,5fb079128b511d47995da086,1920,1080,1
SaccadeExp7_font12,17660,Anti,80,exp,4,3,opposite,600,650,400,P,P,TRUE,359.171000000089,5fb079128b511d47995da086,1920,1080,1
SaccadeExp7_font12,17660,Anti,81,exp,4,3,opposite,1400,650,400,R,P,FALSE,985.980999999912,5fb079128b511d47995da086,1920,1080,1
SaccadeExp7_font12,17660,Anti,82,exp,2,1,opposite,600,650,400,P,P,TRUE,352.117000000086,5fb079128b511d47995da086,1920,1080,1
SaccadeExp7_font12,17660,Anti,83,exp,3,4,opposite,600,650,400,P,P,TRUE,299.560999999987,5fb079128b511d47995da086,1920,1080,1
SaccadeExp7_font12,17660,Anti,84,exp,2,1,opposite,600,300,50,B,P,FALSE,445.98900000006,5fb079128b511d47995da086,1920,1080,1
SaccadeExp7_font12,17660,Anti,85,exp,1,2,opposite,200,650,400,B,B,TRUE,323.08899999992,5fb079128b511d47995da086,1920,1080,1
SaccadeExp7_font12,17660,Anti,86,exp,4,3,opposite,1000,300,50,P,B,FALSE,596.867000000086,5fb079128b511d47995da086,1920,1080,1
SaccadeExp7_font12,17660,Anti,87,exp,4,3,opposite,1800,300,50,P,P,TRUE,630.689000000013,5fb079128b511d47995da086,1920,1080,1
SaccadeExp7_font12,17660,Anti,88,exp,1,2,opposite,1800,650,400,B,B,TRUE,336.19299999997,5fb079128b511d47995da086,1920,1080,1
SaccadeExp7_font12,17660,Anti,89,exp,1,2,opposite,200,650,400,P,P,TRUE,397.621000000043,5fb079128b511d47995da086,1920,1080,1
SaccadeExp7_font12,17660,Anti,90,exp,1,2,opposite,1800,650,400,P,P,TRUE,239.114999999991,5fb079128b511d47995da086,1920,1080,1
SaccadeExp7_font12,17660,Anti,91,exp,3,4,opposite,1400,300,50,R,P,FALSE,401.23900000006,5fb079128b511d47995da086,1920,1080,1
SaccadeExp7_font12,17660,Anti,92,exp,1,2,opposite,1000,300,50,R,R,TRUE,789.686999999918,5fb079128b511d47995da086,1920,1080,1
SaccadeExp7_font12,17660,Anti,93,exp,2,1,opposite,1800,650,400,R,R,TRUE,288.196999999927,5fb079128b511d47995da086,1920,1080,1
SaccadeExp7_font12,17660,Anti,94,exp,4,3,opposite,1000,300,50,B,B,TRUE,693.641000000061,5fb079128b511d47995da086,1920,1080,1
SaccadeExp7_font12,17660,Anti,95,exp,4,3,opposite,1400,300,50,R,R,TRUE,596.783000000054,5fb079128b511d47995da086,1920,1080,1
SaccadeExp7_font12,17660,Anti,96,exp,3,4,opposite,1400,300,50,P,R,FALSE,379.254999999888,5fb079128b511d47995da086,1920,1080,1
SaccadeExp7_font12,17660,Anti,97,exp,4,3,opposite,600,650,400,R,R,TRUE,795.367000000086,5fb079128b511d47995da086,1920,1080,1
SaccadeExp7_font12,17660,Anti,98,exp,1,2,opposite,1000,300,50,P,R,FALSE,418.496999999974,5fb079128b511d47995da086,1920,1080,1
SaccadeExp7_font12,17660,Anti,99,exp,3,4,opposite,1000,650,400,B,B,TRUE,345.293000000063,5fb079128b511d47995da086,1920,1080,1
SaccadeExp7_font12,17660,Anti,100,exp,1,2,opposite,600,300,50,R,B,FALSE,1078.38899999997,5fb079128b511d47995da086,1920,1080,1
SaccadeExp7_font12,17660,Anti,101,exp,3,4,opposite,200,300,50,B,R,FALSE,1167.1669999999,5fb079128b511d47995da086,1920,1080,1
SaccadeExp7_font12,17660,Anti,102,exp,4,3,opposite,600,300,50,B,B,TRUE,398.962999999989,5fb079128b511d47995da086,1920,1080,1
SaccadeExp7_font12,17660,Anti,103,exp,3,4,opposite,1000,300,50,B,B,TRUE,444.41100000008,5fb079128b511d47995da086,1920,1080,1
SaccadeExp7_font12,17660,Anti,104,exp,3,4,opposite,1000,300,50,P,B,FALSE,565.527000000002,5fb079128b511d47995da086,1920,1080,1
SaccadeExp7_font12,17660,Anti,105,exp,4,3,opposite,1000,650,400,B,B,TRUE,353.328999999911,5fb079128b511d47995da086,1920,1080,1
SaccadeExp7_font12,17660,Anti,106,exp,2,1,opposite,200,300,50,B,R,FALSE,926.743000000017,5fb079128b511d47995da086,1920,1080,1
SaccadeExp7_font12,17660,Anti,107,exp,1,2,opposite,1800,650,400,R,R,TRUE,257.591000000015,5fb079128b511d47995da086,1920,1080,1
SaccadeExp7_font12,17660,Anti,108,exp,1,2,opposite,1400,300,50,R,R,TRUE,309.049000000115,5fb079128b511d47995da086,1920,1080,1
SaccadeExp7_font12,17660,Anti,109,exp,2,1,opposite,1400,300,50,B,R,FALSE,418.509000000078,5fb079128b511d47995da086,1920,1080,1
SaccadeExp7_font12,17660,Anti,110,exp,1,2,opposite,200,300,50,R,B,FALSE,990.926999999909,5fb079128b511d47995da086,1920,1080,1
SaccadeExp7_font12,17660,Anti,111,exp,1,2,opposite,1400,650,400,R,R,TRUE,254.429000000004,5fb079128b511d47995da086,1920,1080,1
SaccadeExp7_font12,17660,Anti,112,exp,2,1,opposite,600,300,50,R,R,TRUE,390.854999999981,5fb079128b511d47995da086,1920,1080,1
SaccadeExp7_font12,17660,Anti,113,exp,4,3,opposite,200,650,400,B,B,TRUE,329.950999999885,5fb079128b511d47995da086,1920,1080,1
SaccadeExp7_font12,17660,Anti,114,exp,3,4,opposite,1800,650,400,B,B,TRUE,301.108999999939,5fb079128b511d47995da086,1920,1080,1
SaccadeExp7_font12,17660,Anti,115,exp,1,2,opposite,1800,300,50,R,R,TRUE,416.584999999963,5fb079128b511d47995da086,1920,1080,1
SaccadeExp7_font12,17660,Anti,116,exp,1,2,opposite,200,300,50,P,R,FALSE,241.334999999963,5fb079128b511d47995da086,1920,1080,1
SaccadeExp7_font12,17660,Anti,117,exp,2,1,opposite,1400,650,400,P,P,TRUE,339.472999999998,5fb079128b511d47995da086,1920,1080,1
SaccadeExp7_font12,17660,Anti,118,exp,1,2,opposite,1000,650,400,P,P,TRUE,301.598999999929,5fb079128b511d47995da086,1920,1080,1
SaccadeExp7_font12,17660,Anti,119,exp,3,4,opposite,200,650,400,R,R,TRUE,316.024999999907,5fb079128b511d47995da086,1920,1080,1
SaccadeExp7_font12,17660,Anti,120,exp,1,2,opposite,1000,650,400,R,R,TRUE,384.817000000039,5fb079128b511d47995da086,1920,1080,1
SaccadeExp7_font12,17660,Central,1,exp,5,4,close,1000,650,400,P,P,TRUE,392.398999999976,5fb079128b511d47995da086,1920,1080,1
SaccadeExp7_font12,17660,Central,2,exp,5,3,close,200,300,50,B,R,FALSE,626.480999999912,5fb079128b511d47995da086,1920,1080,1
SaccadeExp7_font12,17660,Central,3,exp,5,2,close,1400,650,400,B,P,FALSE,509.300999999978,5fb079128b511d47995da086,1920,1080,1
SaccadeExp7_font12,17660,Central,4,exp,5,4,close,600,650,400,P,P,TRUE,411.750999999931,5fb079128b511d47995da086,1920,1080,1
SaccadeExp7_font12,17660,Central,5,exp,5,3,close,1800,650,400,B,R,FALSE,507.578999999911,5fb079128b511d47995da086,1920,1080,1
SaccadeExp7_font12,17660,Central,6,exp,5,4,close,200,300,50,P,P,TRUE,343.999000000069,5fb079128b511d47995da086,1920,1080,1
SaccadeExp7_font12,17660,Central,7,exp,5,4,close,1000,300,50,R,P,FALSE,756.111000000034,5fb079128b511d47995da086,1920,1080,1
SaccadeExp7_font12,17660,Central,8,exp,5,4,close,1400,300,50,P,P,TRUE,435.58899999992,5fb079128b511d47995da086,1920,1080,1
SaccadeExp7_font12,17660,Central,9,exp,5,1,close,1000,650,400,R,R,TRUE,410.719000000041,5fb079128b511d47995da086,1920,1080,1
SaccadeExp7_font12,17660,Central,10,exp,5,3,close,600,650,400,P,P,TRUE,333.165000000037,5fb079128b511d47995da086,1920,1080,1
SaccadeExp7_font12,17660,Central,11,exp,5,1,close,1800,300,50,R,R,TRUE,361.308999999892,5fb079128b511d47995da086,1920,1080,1
SaccadeExp7_font12,17660,Central,12,exp,5,4,close,200,650,400,R,R,TRUE,414.070999999996,5fb079128b511d47995da086,1920,1080,1
SaccadeExp7_font12,17660,Central,13,exp,5,4,close,1400,650,400,R,R,TRUE,355.882999999914,5fb079128b511d47995da086,1920,1080,1
SaccadeExp7_font12,17660,Central,14,exp,5,2,close,200,300,50,R,R,TRUE,422.29700000002,5fb079128b511d47995da086,1920,1080,1
SaccadeExp7_font12,17660,Central,15,exp,5,1,close,1800,300,50,P,R,FALSE,290.111000000034,5fb079128b511d47995da086,1920,1080,1
SaccadeExp7_font12,17660,Central,16,exp,5,1,close,200,300,50,B,P,FALSE,417.189000000013,5fb079128b511d47995da086,1920,1080,1
SaccadeExp7_font12,17660,Central,17,exp,5,1,close,1800,650,400,B,R,FALSE,496.016999999993,5fb079128b511d47995da086,1920,1080,1
SaccadeExp7_font12,17660,Central,18,exp,5,2,close,1000,650,400,B,P,FALSE,546.817000000039,5fb079128b511d47995da086,1920,1080,1
SaccadeExp7_font12,17660,Central,19,exp,5,1,close,200,650,400,P,R,FALSE,463.253000000026,5fb079128b511d47995da086,1920,1080,1
SaccadeExp7_font12,17660,Central,20,exp,5,1,close,600,300,50,P,P,TRUE,322.02099999995,5fb079128b511d47995da086,1920,1080,1
SaccadeExp7_font12,17660,Central,21,exp,5,4,close,1800,300,50,P,P,TRUE,283.831000000006,5fb079128b511d47995da086,1920,1080,1
SaccadeExp7_font12,17660,Central,22,exp,5,3,close,1400,650,400,P,P,TRUE,405.970999999903,5fb079128b511d47995da086,1920,1080,1
SaccadeExp7_font12,17660,Central,23,exp,5,1,close,1800,650,400,R,R,TRUE,635.465000000084,5fb079128b511d47995da086,1920,1080,1
SaccadeExp7_font12,17660,Central,24,exp,5,4,close,600,300,50,B,R,FALSE,529.573000000091,5fb079128b511d47995da086,1920,1080,1
SaccadeExp7_font12,17660,Central,25,exp,5,2,close,200,650,400,R,P,FALSE,493.009000000078,5fb079128b511d47995da086,1920,1080,1
SaccadeExp7_font12,17660,Central,26,exp,5,3,close,1400,300,50,R,P,FALSE,496.142999999924,5fb079128b511d47995da086,1920,1080,1
SaccadeExp7_font12,17660,Central,27,exp,5,3,close,1000,300,50,B,R,FALSE,1250.26099999994,5fb079128b511d47995da086,1920,1080,1
SaccadeExp7_font12,17660,Central,28,exp,5,2,close,1400,650,400,R,P,FALSE,673.773000000045,5fb079128b511d47995da086,1920,1080,1
SaccadeExp7_font12,17660,Central,29,exp,5,4,close,200,300,50,B,P,FALSE,330.533000000054,5fb079128b511d47995da086,1920,1080,1
SaccadeExp7_font12,17660,Central,30,exp,5,3,close,600,300,50,P,P,TRUE,271.628999999957,5fb079128b511d47995da086,1920,1080,1
SaccadeExp7_font12,17660,Central,31,exp,5,3,close,600,650,400,B,P,FALSE,205.402999999933,5fb079128b511d47995da086,1920,1080,1
SaccadeExp7_font12,17660,Central,32,exp,5,2,close,1400,650,400,P,B,FALSE,6469.87299999991,5fb079128b511d47995da086,1920,1080,1
SaccadeExp7_font12,17660,Central,33,exp,5,1,close,200,300,50,P,P,TRUE,667.864999999991,5fb079128b511d47995da086,1920,1080,1
SaccadeExp7_font12,17660,Central,34,exp,5,4,close,1800,300,50,B,P,FALSE,571.689000000013,5fb079128b511d47995da086,1920,1080,1
SaccadeExp7_font12,17660,Central,35,exp,5,4,close,1800,300,50,R,P,FALSE,380.509000000078,5fb079128b511d47995da086,1920,1080,1
SaccadeExp7_font12,17660,Central,36,exp,5,1,close,1400,300,50,R,P,FALSE,349.638999999966,5fb079128b511d47995da086,1920,1080,1
SaccadeExp7_font12,17660,Central,37,exp,5,3,close,1000,300,50,R,P,FALSE,315.084999999963,5fb079128b511d47995da086,1920,1080,1
SaccadeExp7_font12,17660,Central,38,exp,5,4,close,1400,650,400,P,R,FALSE,383.892999999924,5fb079128b511d47995da086,1920,1080,1
SaccadeExp7_font12,17660,Central,39,exp,5,1,close,1000,650,400,P,P,TRUE,392.02099999995,5fb079128b511d47995da086,1920,1080,1
SaccadeExp7_font12,17660,Central,40,exp,5,1,close,1400,300,50,B,R,FALSE,704.151000000071,5fb079128b511d47995da086,1920,1080,1
SaccadeExp7_font12,17660,Central,41,exp,5,4,close,1400,650,400,B,P,FALSE,594.641000000061,5fb079128b511d47995da086,1920,1080,1
SaccadeExp7_font12,17660,Central,42,exp,5,2,close,1800,300,50,R,R,TRUE,607.794999999925,5fb079128b511d47995da086,1920,1080,1
SaccadeExp7_font12,17660,Central,43,exp,5,1,close,1000,300,50,B,R,FALSE,404.250999999931,5fb079128b511d47995da086,1920,1080,1
SaccadeExp7_font12,17660,Central,44,exp,5,3,close,1000,650,400,B,B,TRUE,722.712999999989,5fb079128b511d47995da086,1920,1080,1
SaccadeExp7_font12,17660,Central,45,exp,5,1,close,200,650,400,B,R,FALSE,743.48900000006,5fb079128b511d47995da086,1920,1080,1
SaccadeExp7_font12,17660,Central,46,exp,5,1,close,1400,300,50,P,P,TRUE,749.632999999914,5fb079128b511d47995da086,1920,1080,1
SaccadeExp7_font12,17660,Central,47,exp,5,4,close,200,300,50,R,R,TRUE,328.063000000082,5fb079128b511d47995da086,1920,1080,1
SaccadeExp7_font12,17660,Central,48,exp,5,2,close,600,300,50,R,P,FALSE,643.158999999985,5fb079128b511d47995da086,1920,1080,1
SaccadeExp7_font12,17660,Central,49,exp,5,2,close,600,300,50,B,P,FALSE,530.266999999993,5fb079128b511d47995da086,1920,1080,1
SaccadeExp7_font12,17660,Central,50,exp,5,2,close,1000,650,400,P,P,TRUE,241.733000000007,5fb079128b511d47995da086,1920,1080,1
SaccadeExp7_font12,17660,Central,51,exp,5,3,close,1800,650,400,R,R,TRUE,439.887000000104,5fb079128b511d47995da086,1920,1080,1
SaccadeExp7_font12,17660,Central,52,exp,5,2,close,1000,300,50,B,R,FALSE,335.003000000026,5fb079128b511d47995da086,1920,1080,1
SaccadeExp7_font12,17660,Central,53,exp,5,2,close,1800,650,400,P,P,TRUE,431.16100000008,5fb079128b511d47995da086,1920,1080,1
SaccadeExp7_font12,17660,Central,54,exp,5,3,close,600,300,50,B,B,TRUE,767.26099999994,5fb079128b511d47995da086,1920,1080,1
SaccadeExp7_font12,17660,Central,55,exp,5,3,close,1800,300,50,B,B,TRUE,491.08899999992,5fb079128b511d47995da086,1920,1080,1
SaccadeExp7_font12,17660,Central,56,exp,5,2,close,600,300,50,P,P,TRUE,1817.19100000011,5fb079128b511d47995da086,1920,1080,1
SaccadeExp7_font12,17660,Central,57,exp,5,2,close,200,300,50,B,P,FALSE,541.996999999974,5fb079128b511d47995da086,1920,1080,1
SaccadeExp7_font12,17660,Central,58,exp,5,3,close,200,650,400,B,P,FALSE,515.098999999929,5fb079128b511d47995da086,1920,1080,1
SaccadeExp7_font12,17660,Central,59,exp,5,4,close,600,300,50,P,P,TRUE,363.868999999948,5fb079128b511d47995da086,1920,1080,1
SaccadeExp7_font12,17660,Central,60,exp,5,3,close,600,300,50,R,P,FALSE,252.632999999914,5fb079128b511d47995da086,1920,1080,1
SaccadeExp7_font12,17660,Central,61,exp,5,3,close,200,300,50,P,P,TRUE,428.236999999965,5fb079128b511d47995da086,1920,1080,1
SaccadeExp7_font12,17660,Central,62,exp,5,4,close,1400,300,50,R,B,FALSE,790.034999999916,5fb079128b511d47995da086,1920,1080,1
SaccadeExp7_font12,17660,Central,63,exp,5,3,close,1000,650,400,P,P,TRUE,433.179000000004,5fb079128b511d47995da086,1920,1080,1
SaccadeExp7_font12,17660,Central,64,exp,5,3,close,1400,300,50,B,B,TRUE,665.310999999987,5fb079128b511d47995da086,1920,1080,1
SaccadeExp7_font12,17660,Central,65,exp,5,3,close,1800,650,400,P,P,TRUE,1138.14899999998,5fb079128b511d47995da086,1920,1080,1
SaccadeExp7_font12,17660,Central,66,exp,5,2,close,1800,650,400,B,B,TRUE,979.33899999992,5fb079128b511d47995da086,1920,1080,1
SaccadeExp7_font12,17660,Central,67,exp,5,4,close,1800,650,400,R,R,TRUE,1333.52300000004,5fb079128b511d47995da086,1920,1080,1
SaccadeExp7_font12,17660,Central,68,exp,5,4,close,600,650,400,R,R,TRUE,1444.67299999995,5fb079128b511d47995da086,1920,1080,1
SaccadeExp7_font12,17660,Central,69,exp,5,2,close,200,650,400,P,P,TRUE,609.145000000019,5fb079128b511d47995da086,1920,1080,1
SaccadeExp7_font12,17660,Central,70,exp,5,4,close,600,300,50,R,R,TRUE,740.584999999963,5fb079128b511d47995da086,1920,1080,1
SaccadeExp7_font12,17660,Central,71,exp,5,2,close,1000,650,400,R,P,FALSE,1186.72699999996,5fb079128b511d47995da086,1920,1080,1
SaccadeExp7_font12,17660,Central,72,exp,5,4,close,1000,650,400,R,R,TRUE,649.887000000104,5fb079128b511d47995da086,1920,1080,1
SaccadeExp7_font12,17660,Central,73,exp,5,3,close,200,650,400,P,P,TRUE,413.327000000048,5fb079128b511d47995da086,1920,1080,1
SaccadeExp7_font12,17660,Central,74,exp,5,2,close,600,650,400,R,R,TRUE,771.107000000076,5fb079128b511d47995da086,1920,1080,1
SaccadeExp7_font12,17660,Central,75,exp,5,2,close,1800,650,400,R,R,TRUE,644.949000000022,5fb079128b511d47995da086,1920,1080,1
SaccadeExp7_font12,17660,Central,76,exp,5,2,close,1000,300,50,R,R,TRUE,371.40699999989,5fb079128b511d47995da086,1920,1080,1
SaccadeExp7_font12,17660,Central,77,exp,5,2,close,1800,300,50,P,P,TRUE,430.219000000041,5fb079128b511d47995da086,1920,1080,1
SaccadeExp7_font12,17660,Central,78,exp,5,2,close,1400,300,50,R,R,TRUE,675.351000000024,5fb079128b511d47995da086,1920,1080,1
SaccadeExp7_font12,17660,Central,79,exp,5,4,close,1800,650,400,B,P,FALSE,746.189000000013,5fb079128b511d47995da086,1920,1080,1
SaccadeExp7_font12,17660,Central,80,exp,5,3,close,200,650,400,R,P,FALSE,966.632999999914,5fb079128b511d47995da086,1920,1080,1
SaccadeExp7_font12,17660,Central,81,exp,5,3,close,600,650,400,R,B,FALSE,877.435000000056,5fb079128b511d47995da086,1920,1080,1
SaccadeExp7_font12,17660,Central,82,exp,5,3,close,1000,650,400,R,R,TRUE,660.583000000101,5fb079128b511d47995da086,1920,1080,1
SaccadeExp7_font12,17660,Central,83,exp,5,1,close,1800,650,400,P,P,TRUE,500.087000000058,5fb079128b511d47995da086,1920,1080,1
SaccadeExp7_font12,17660,Central,84,exp,5,2,close,1400,300,50,P,P,TRUE,442.554999999935,5fb079128b511d47995da086,1920,1080,1
SaccadeExp7_font12,17660,Central,85,exp,5,2,close,600,650,400,P,P,TRUE,502.668999999994,5fb079128b511d47995da086,1920,1080,1
SaccadeExp7_font12,17660,Central,86,exp,5,3,close,1400,650,400,B,P,FALSE,482.151000000071,5fb079128b511d47995da086,1920,1080,1
SaccadeExp7_font12,17660,Central,87,exp,5,2,close,1000,300,50,P,P,TRUE,364.269000000088,5fb079128b511d47995da086,1920,1080,1
SaccadeExp7_font12,17660,Central,88,exp,5,3,close,1000,300,50,P,P,TRUE,320.049000000115,5fb079128b511d47995da086,1920,1080,1
SaccadeExp7_font12,17660,Central,89,exp,5,3,close,1800,300,50,P,P,TRUE,301.858999999939,5fb079128b511d47995da086,1920,1080,1
SaccadeExp7_font12,17660,Central,90,exp,5,4,close,1000,650,400,B,P,FALSE,632.317000000039,5fb079128b511d47995da086,1920,1080,1
SaccadeExp7_font12,17660,Central,91,exp,5,2,close,1400,300,50,B,P,FALSE,587.456999999937,5fb079128b511d47995da086,1920,1080,1
SaccadeExp7_font12,17660,Central,92,exp,5,4,close,200,650,400,B,P,FALSE,399.560999999987,5fb079128b511d47995da086,1920,1080,1
SaccadeExp7_font12,17660,Central,93,exp,5,1,close,1000,300,50,R,P,FALSE,658.009000000078,5fb079128b511d47995da086,1920,1080,1
SaccadeExp7_font12,17660,Central,94,exp,5,3,close,1800,300,50,R,P,FALSE,440.499000000069,5fb079128b511d47995da086,1920,1080,1
SaccadeExp7_font12,17660,Central,95,exp,5,4,close,200,650,400,P,P,TRUE,392.597000000067,5fb079128b511d47995da086,1920,1080,1
SaccadeExp7_font12,17660,Central,96,exp,5,1,close,1000,300,50,P,P,TRUE,351.710999999894,5fb079128b511d47995da086,1920,1080,1
SaccadeExp7_font12,17660,Central,97,exp,5,1,close,200,650,400,R,P,FALSE,670.138999999966,5fb079128b511d47995da086,1920,1080,1
SaccadeExp7_font12,17660,Central,98,exp,5,1,close,1400,650,400,P,P,TRUE,340.960999999894,5fb079128b511d47995da086,1920,1080,1
SaccadeExp7_font12,17660,Central,99,exp,5,1,close,600,300,50,B,P,FALSE,327.05700000003,5fb079128b511d47995da086,1920,1080,1
SaccadeExp7_font12,17660,Central,100,exp,5,2,close,600,650,400,B,P,FALSE,456.833000000101,5fb079128b511d47995da086,1920,1080,1
SaccadeExp7_font12,17660,Central,101,exp,5,3,close,200,300,50,R,R,TRUE,503.250999999931,5fb079128b511d47995da086,1920,1080,1
SaccadeExp7_font12,17660,Central,102,exp,5,1,close,1800,300,50,B,P,FALSE,355.735000000102,5fb079128b511d47995da086,1920,1080,1
SaccadeExp7_font12,17660,Central,103,exp,5,1,close,1000,650,400,B,P,FALSE,374.195000000065,5fb079128b511d47995da086,1920,1080,1
SaccadeExp7_font12,17660,Central,104,exp,5,1,close,600,650,400,P,P,TRUE,355.972999999998,5fb079128b511d47995da086,1920,1080,1
SaccadeExp7_font12,17660,Central,105,exp,5,1,close,1400,650,400,B,R,FALSE,646.449000000022,5fb079128b511d47995da086,1920,1080,1
SaccadeExp7_font12,17660,Central,106,exp,5,4,close,600,650,400,B,R,FALSE,401.905000000028,5fb079128b511d47995da086,1920,1080,1
SaccadeExp7_font12,17660,Central,107,exp,5,1,close,200,300,50,R,R,TRUE,365.320999999996,5fb079128b511d47995da086,1920,1080,1
SaccadeExp7_font12,17660,Central,108,exp,5,1,close,600,300,50,R,R,TRUE,287.084999999963,5fb079128b511d47995da086,1920,1080,1
SaccadeExp7_font12,17660,Central,109,exp,5,1,close,600,650,400,R,R,TRUE,271.19299999997,5fb079128b511d47995da086,1920,1080,1
SaccadeExp7_font12,17660,Central,110,exp,5,2,close,200,650,400,B,P,FALSE,545.950999999885,5fb079128b511d47995da086,1920,1080,1
SaccadeExp7_font12,17660,Central,111,exp,5,3,close,1400,300,50,P,P,TRUE,428.421000000089,5fb079128b511d47995da086,1920,1080,1
SaccadeExp7_font12,17660,Central,112,exp,5,3,close,1400,650,400,R,P,FALSE,779.567000000039,5fb079128b511d47995da086,1920,1080,1
SaccadeExp7_font12,17660,Central,113,exp,5,1,close,600,650,400,B,B,TRUE,584.695000000065,5fb079128b511d47995da086,1920,1080,1
SaccadeExp7_font12,17660,Central,114,exp,5,2,close,200,300,50,P,P,TRUE,500.784999999916,5fb079128b511d47995da086,1920,1080,1
SaccadeExp7_font12,17660,Central,115,exp,5,4,close,1000,300,50,B,B,TRUE,703.236999999965,5fb079128b511d47995da086,1920,1080,1
SaccadeExp7_font12,17660,Central,116,exp,5,4,close,1000,300,50,P,P,TRUE,361.696999999927,5fb079128b511d47995da086,1920,1080,1
SaccadeExp7_font12,17660,Central,117,exp,5,4,close,1800,650,400,P,P,TRUE,588.523000000045,5fb079128b511d47995da086,1920,1080,1
SaccadeExp7_font12,17660,Central,118,exp,5,1,close,1400,650,400,R,R,TRUE,585.34300000011,5fb079128b511d47995da086,1920,1080,1
SaccadeExp7_font12,17660,Central,119,exp,5,4,close,1400,300,50,B,P,FALSE,398.480999999912,5fb079128b511d47995da086,1920,1080,1
SaccadeExp7_font12,17660,Central,120,exp,5,2,close,1800,300,50,B,R,FALSE,636.294999999925,5fb079128b511d47995da086,1920,1080,1
SaccadeExp7_font12,17660,Colour,1,exp,5,2,close,1400,300,50,R,P,FALSE,1006.76500000013,5fb079128b511d47995da086,1920,1080,1
SaccadeExp7_font12,17660,Colour,2,exp,5,2,close,600,650,400,P,P,TRUE,295.23499999987,5fb079128b511d47995da086,1920,1080,1
SaccadeExp7_font12,17660,Colour,3,exp,5,4,close,1400,650,400,R,R,TRUE,316.375,5fb079128b511d47995da086,1920,1080,1
SaccadeExp7_font12,17660,Colour,4,exp,5,4,close,1000,650,400,R,R,TRUE,411.166999999899,5fb079128b511d47995da086,1920,1080,1
SaccadeExp7_font12,17660,Colour,5,exp,5,4,close,200,650,400,R,R,TRUE,487.597000000067,5fb079128b511d47995da086,1920,1080,1
SaccadeExp7_font12,17660,Colour,6,exp,5,4,close,600,650,400,P,P,TRUE,370.712999999989,5fb079128b511d47995da086,1920,1080,1
SaccadeExp7_font12,17660,Colour,7,exp,5,1,close,200,300,50,B,B,TRUE,1197.46100000013,5fb079128b511d47995da086,1920,1080,1
SaccadeExp7_font12,17660,Colour,8,exp,5,4,close,1800,300,50,B,B,TRUE,1249.97300000023,5fb079128b511d47995da086,1920,1080,1
SaccadeExp7_font12,17660,Colour,9,exp,5,2,close,1000,300,50,B,P,FALSE,619.455000000075,5fb079128b511d47995da086,1920,1080,1
SaccadeExp7_font12,17660,Colour,10,exp,5,2,close,1000,300,50,P,P,TRUE,369.245000000112,5fb079128b511d47995da086,1920,1080,1
SaccadeExp7_font12,17660,Colour,11,exp,5,3,close,200,300,50,R,R,TRUE,616.992999999784,5fb079128b511d47995da086,1920,1080,1
SaccadeExp7_font12,17660,Colour,12,exp,5,3,close,1400,650,400,B,P,FALSE,412.813000000082,5fb079128b511d47995da086,1920,1080,1
SaccadeExp7_font12,17660,Colour,13,exp,5,2,close,1400,650,400,R,R,TRUE,562.625,5fb079128b511d47995da086,1920,1080,1
SaccadeExp7_font12,17660,Colour,14,exp,5,4,close,1400,650,400,B,B,TRUE,519.44299999997,5fb079128b511d47995da086,1920,1080,1
SaccadeExp7_font12,17660,Colour,15,exp,5,3,close,1000,650,400,R,R,TRUE,495.242999999784,5fb079128b511d47995da086,1920,1080,1
SaccadeExp7_font12,17660,Colour,16,exp,5,1,close,600,300,50,R,R,TRUE,666.679000000004,5fb079128b511d47995da086,1920,1080,1
SaccadeExp7_font12,17660,Colour,17,exp,5,4,close,600,650,400,R,R,TRUE,308.469000000041,5fb079128b511d47995da086,1920,1080,1
SaccadeExp7_font12,17660,Colour,18,exp,5,3,close,1800,650,400,B,B,TRUE,582.958999999799,5fb079128b511d47995da086,1920,1080,1
SaccadeExp7_font12,17660,Colour,19,exp,5,3,close,600,300,50,R,R,TRUE,559.064999999944,5fb079128b511d47995da086,1920,1080,1
SaccadeExp7_font12,17660,Colour,20,exp,5,1,close,600,650,400,R,R,TRUE,310.850999999791,5fb079128b511d47995da086,1920,1080,1
SaccadeExp7_font12,17660,Colour,21,exp,5,4,close,1000,300,50,R,R,TRUE,1025.29499999993,5fb079128b511d47995da086,1920,1080,1
SaccadeExp7_font12,17660,Colour,22,exp,5,3,close,600,650,400,R,R,TRUE,585.098999999929,5fb079128b511d47995da086,1920,1080,1
SaccadeExp7_font12,17660,Colour,23,exp,5,2,close,1800,300,50,R,R,TRUE,644.253000000026,5fb079128b511d47995da086,1920,1080,1
SaccadeExp7_font12,17660,Colour,24,exp,5,2,close,600,300,50,P,P,TRUE,783.361000000034,5fb079128b511d47995da086,1920,1080,1
SaccadeExp7_font12,17660,Colour,25,exp,5,2,close,1800,650,400,B,B,TRUE,530.537000000011,5fb079128b511d47995da086,1920,1080,1
SaccadeExp7_font12,17660,Colour,26,exp,5,2,close,600,300,50,R,R,TRUE,1598.64099999983,5fb079128b511d47995da086,1920,1080,1
SaccadeExp7_font12,17660,Colour,27,exp,5,2,close,1800,650,400,P,P,TRUE,286.183000000194,5fb079128b511d47995da086,1920,1080,1
SaccadeExp7_font12,17660,Colour,28,exp,5,3,close,1400,300,50,R,R,TRUE,496.308999999892,5fb079128b511d47995da086,1920,1080,1
SaccadeExp7_font12,17660,Colour,29,exp,5,2,close,600,300,50,B,P,FALSE,446.410999999847,5fb079128b511d47995da086,1920,1080,1
SaccadeExp7_font12,17660,Colour,30,exp,5,4,close,1800,650,400,P,P,TRUE,391.240999999922,5fb079128b511d47995da086,1920,1080,1
SaccadeExp7_font12,17660,Colour,31,exp,5,3,close,1800,300,50,B,R,FALSE,733.387000000104,5fb079128b511d47995da086,1920,1080,1
SaccadeExp7_font12,17660,Colour,32,exp,5,4,close,1800,650,400,R,P,FALSE,714.56100000022,5fb079128b511d47995da086,1920,1080,1
SaccadeExp7_font12,17660,Colour,33,exp,5,1,close,200,300,50,R,R,TRUE,531.322999999858,5fb079128b511d47995da086,1920,1080,1
SaccadeExp7_font12,17660,Colour,34,exp,5,3,close,1400,650,400,P,P,TRUE,259.473000000231,5fb079128b511d47995da086,1920,1080,1
SaccadeExp7_font12,17660,Colour,35,exp,5,3,close,600,300,50,B,P,FALSE,610.899000000209,5fb079128b511d47995da086,1920,1080,1
SaccadeExp7_font12,17660,Colour,36,exp,5,3,close,600,650,400,B,B,TRUE,467.353000000119,5fb079128b511d47995da086,1920,1080,1
SaccadeExp7_font12,17660,Colour,37,exp,5,4,close,1400,300,50,P,P,TRUE,406.152999999933,5fb079128b511d47995da086,1920,1080,1
SaccadeExp7_font12,17660,Colour,38,exp,5,3,close,1400,650,400,R,R,TRUE,357.631000000052,5fb079128b511d47995da086,1920,1080,1
SaccadeExp7_font12,17660,Colour,39,exp,5,3,close,1800,300,50,P,P,TRUE,487.109000000171,5fb079128b511d47995da086,1920,1080,1
SaccadeExp7_font12,17660,Colour,40,exp,5,2,close,1400,300,50,B,R,FALSE,453.242999999784,5fb079128b511d47995da086,1920,1080,1
SaccadeExp7_font12,17660,Colour,41,exp,5,4,close,1000,650,400,B,P,FALSE,731.706999999937,5fb079128b511d47995da086,1920,1080,1
SaccadeExp7_font12,17660,Colour,42,exp,5,1,close,1400,300,50,B,R,FALSE,524.850999999791,5fb079128b511d47995da086,1920,1080,1
SaccadeExp7_font12,17660,Colour,43,exp,5,1,close,1400,650,400,P,P,TRUE,371.666999999899,5fb079128b511d47995da086,1920,1080,1
SaccadeExp7_font12,17660,Colour,44,exp,5,3,close,600,650,400,P,P,TRUE,221.444999999832,5fb079128b511d47995da086,1920,1080,1
SaccadeExp7_font12,17660,Colour,45,exp,5,2,close,1000,650,400,P,P,TRUE,414.233000000007,5fb079128b511d47995da086,1920,1080,1
SaccadeExp7_font12,17660,Colour,46,exp,5,3,close,200,300,50,P,P,TRUE,195.983000000007,5fb079128b511d47995da086,1920,1080,1
SaccadeExp7_font12,17660,Colour,47,exp,5,1,close,1800,300,50,R,R,TRUE,398.455000000075,5fb079128b511d47995da086,1920,1080,1
SaccadeExp7_font12,17660,Colour,48,exp,5,2,close,200,300,50,R,P,FALSE,585.87099999981,5fb079128b511d47995da086,1920,1080,1
SaccadeExp7_font12,17660,Colour,49,exp,5,1,close,1800,300,50,P,P,TRUE,459.024999999907,5fb079128b511d47995da086,1920,1080,1
SaccadeExp7_font12,17660,Colour,50,exp,5,1,close,600,650,400,P,P,TRUE,176.473000000231,5fb079128b511d47995da086,1920,1080,1
SaccadeExp7_font12,17660,Colour,51,exp,5,4,close,200,300,50,R,R,TRUE,389.212999999989,5fb079128b511d47995da086,1920,1080,1
SaccadeExp7_font12,17660,Colour,52,exp,5,3,close,200,650,400,P,P,TRUE,65.308999999892,5fb079128b511d47995da086,1920,1080,1
SaccadeExp7_font12,17660,Colour,53,exp,5,1,close,600,300,50,P,P,TRUE,375.06100000022,5fb079128b511d47995da086,1920,1080,1
SaccadeExp7_font12,17660,Colour,54,exp,5,1,close,1800,650,400,P,P,TRUE,154.887000000104,5fb079128b511d47995da086,1920,1080,1
SaccadeExp7_font12,17660,Colour,55,exp,5,1,close,600,650,400,B,P,FALSE,135.322999999858,5fb079128b511d47995da086,1920,1080,1
SaccadeExp7_font12,17660,Colour,56,exp,5,2,close,200,650,400,R,P,FALSE,501.408999999985,5fb079128b511d47995da086,1920,1080,1
SaccadeExp7_font12,17660,Colour,57,exp,5,2,close,1800,300,50,B,R,FALSE,783.893000000156,5fb079128b511d47995da086,1920,1080,1
SaccadeExp7_font12,17660,Colour,58,exp,5,1,close,1400,300,50,P,B,FALSE,780.038999999873,5fb079128b511d47995da086,1920,1080,1
SaccadeExp7_font12,17660,Colour,59,exp,5,4,close,600,300,50,B,B,TRUE,584.152999999933,5fb079128b511d47995da086,1920,1080,1
SaccadeExp7_font12,17660,Colour,60,exp,5,3,close,1000,300,50,R,R,TRUE,507.274999999907,5fb079128b511d47995da086,1920,1080,1
SaccadeExp7_font12,17660,Colour,61,exp,5,1,close,200,650,400,R,R,TRUE,581.478999999817,5fb079128b511d47995da086,1920,1080,1
SaccadeExp7_font12,17660,Colour,62,exp,5,2,close,1000,650,400,B,B,TRUE,421.615000000224,5fb079128b511d47995da086,1920,1080,1
SaccadeExp7_font12,17660,Colour,63,exp,5,2,close,1800,300,50,P,P,TRUE,1317.429,5fb079128b511d47995da086,1920,1080,1
SaccadeExp7_font12,17660,Colour,64,exp,5,2,close,200,650,400,B,B,TRUE,518.228999999817,5fb079128b511d47995da086,1920,1080,1
SaccadeExp7_font12,17660,Colour,65,exp,5,2,close,600,650,400,R,R,TRUE,497.012999999803,5fb079128b511d47995da086,1920,1080,1
SaccadeExp7_font12,17660,Colour,66,exp,5,3,close,200,650,400,B,B,TRUE,763.44700000016,5fb079128b511d47995da086,1920,1080,1
SaccadeExp7_font12,17660,Colour,67,exp,5,4,close,600,300,50,R,R,TRUE,1078.22699999996,5fb079128b511d47995da086,1920,1080,1
SaccadeExp7_font12,17660,Colour,68,exp,5,3,close,1800,650,400,P,P,TRUE,477.080999999773,5fb079128b511d47995da086,1920,1080,1
SaccadeExp7_font12,17660,Colour,69,exp,5,1,close,1400,650,400,B,B,TRUE,400.228999999817,5fb079128b511d47995da086,1920,1080,1
SaccadeExp7_font12,17660,Colour,70,exp,5,1,close,1000,300,50,B,R,FALSE,613.677000000142,5fb079128b511d47995da086,1920,1080,1
SaccadeExp7_font12,17660,Colour,71,exp,5,4,close,1800,300,50,R,R,TRUE,507.165000000037,5fb079128b511d47995da086,1920,1080,1
SaccadeExp7_font12,17660,Colour,72,exp,5,4,close,200,300,50,P,P,TRUE,584.584999999963,5fb079128b511d47995da086,1920,1080,1
SaccadeExp7_font12,17660,Colour,73,exp,5,1,close,200,650,400,B,B,TRUE,324.68899999978,5fb079128b511d47995da086,1920,1080,1
SaccadeExp7_font12,17660,Colour,74,exp,5,4,close,1400,300,50,R,R,TRUE,701.483000000007,5fb079128b511d47995da086,1920,1080,1
SaccadeExp7_font12,17660,Colour,75,exp,5,3,close,1000,300,50,P,P,TRUE,444.94299999997,5fb079128b511d47995da086,1920,1080,1
SaccadeExp7_font12,17660,Colour,76,exp,5,4,close,600,300,50,P,P,TRUE,488.376999999862,5fb079128b511d47995da086,1920,1080,1
SaccadeExp7_font12,17660,Colour,77,exp,5,2,close,1800,650,400,R,R,TRUE,514.541000000201,5fb079128b511d47995da086,1920,1080,1
SaccadeExp7_font12,17660,Colour,78,exp,5,3,close,1800,650,400,R,P,FALSE,598.373000000138,5fb079128b511d47995da086,1920,1080,1
SaccadeExp7_font12,17660,Colour,79,exp,5,4,close,1000,650,400,P,P,TRUE,342.842999999877,5fb079128b511d47995da086,1920,1080,1
SaccadeExp7_font12,17660,Colour,80,exp,5,3,close,1000,300,50,B,P,FALSE,778.955000000075,5fb079128b511d47995da086,1920,1080,1
SaccadeExp7_font12,17660,Colour,81,exp,5,2,close,200,300,50,B,R,FALSE,398.05299999984,5fb079128b511d47995da086,1920,1080,1
SaccadeExp7_font12,17660,Colour,82,exp,5,2,close,600,650,400,B,B,TRUE,421.498999999836,5fb079128b511d47995da086,1920,1080,1
SaccadeExp7_font12,17660,Colour,83,exp,5,3,close,1000,650,400,P,P,TRUE,208.294999999925,5fb079128b511d47995da086,1920,1080,1
SaccadeExp7_font12,17660,Colour,84,exp,5,2,close,1000,650,400,R,R,TRUE,255.748999999836,5fb079128b511d47995da086,1920,1080,1
SaccadeExp7_font12,17660,Colour,85,exp,5,2,close,1000,300,50,R,R,TRUE,294.191000000108,5fb079128b511d47995da086,1920,1080,1
SaccadeExp7_font12,17660,Colour,86,exp,5,4,close,1000,300,50,P,P,TRUE,504.300999999978,5fb079128b511d47995da086,1920,1080,1
SaccadeExp7_font12,17660,Colour,87,exp,5,3,close,200,650,400,R,R,TRUE,386.73499999987,5fb079128b511d47995da086,1920,1080,1
SaccadeExp7_font12,17660,Colour,88,exp,5,2,close,1400,650,400,B,R,FALSE,485.87900000019,5fb079128b511d47995da086,1920,1080,1
SaccadeExp7_font12,17660,Colour,89,exp,5,4,close,1400,300,50,B,B,TRUE,742.012999999803,5fb079128b511d47995da086,1920,1080,1
SaccadeExp7_font12,17660,Colour,90,exp,5,2,close,200,650,400,P,P,TRUE,532.123000000138,5fb079128b511d47995da086,1920,1080,1
SaccadeExp7_font12,17660,Colour,91,exp,5,3,close,600,300,50,P,P,TRUE,416.226999999955,5fb079128b511d47995da086,1920,1080,1
SaccadeExp7_font12,17660,Colour,92,exp,5,4,close,600,650,400,B,B,TRUE,438.672999999952,5fb079128b511d47995da086,1920,1080,1
SaccadeExp7_font12,17660,Colour,93,exp,5,1,close,1800,650,400,B,R,FALSE,1911.83499999996,5fb079128b511d47995da086,1920,1080,1
SaccadeExp7_font12,17660,Colour,94,exp,5,1,close,1800,300,50,B,B,TRUE,640.376999999862,5fb079128b511d47995da086,1920,1080,1
SaccadeExp7_font12,17660,Colour,95,exp,5,1,close,600,300,50,B,R,FALSE,688.48499999987,5fb079128b511d47995da086,1920,1080,1
SaccadeExp7_font12,17660,Colour,96,exp,5,1,close,1400,650,400,R,R,TRUE,390.640999999829,5fb079128b511d47995da086,1920,1080,1
SaccadeExp7_font12,17660,Colour,97,exp,5,1,close,1000,650,400,R,R,TRUE,271.768999999855,5fb079128b511d47995da086,1920,1080,1
SaccadeExp7_font12,17660,Colour,98,exp,5,3,close,1800,300,50,R,P,FALSE,706.577000000048,5fb079128b511d47995da086,1920,1080,1
SaccadeExp7_font12,17660,Colour,99,exp,5,1,close,200,300,50,P,P,TRUE,510.004999999888,5fb079128b511d47995da086,1920,1080,1
SaccadeExp7_font12,17660,Colour,100,exp,5,1,close,1000,650,400,B,B,TRUE,403.470999999903,5fb079128b511d47995da086,1920,1080,1
SaccadeExp7_font12,17660,Colour,101,exp,5,4,close,1800,300,50,P,P,TRUE,515.950999999885,5fb079128b511d47995da086,1920,1080,1
SaccadeExp7_font12,17660,Colour,102,exp,5,1,close,1000,300,50,R,R,TRUE,411.737000000197,5fb079128b511d47995da086,1920,1080,1
SaccadeExp7_font12,17660,Colour,103,exp,5,4,close,200,650,400,P,P,TRUE,646.501000000164,5fb079128b511d47995da086,1920,1080,1
SaccadeExp7_font12,17660,Colour,104,exp,5,4,close,200,300,50,B,R,FALSE,637.927000000142,5fb079128b511d47995da086,1920,1080,1
SaccadeExp7_font12,17660,Colour,105,exp,5,1,close,1400,300,50,R,R,TRUE,494.066999999806,5fb079128b511d47995da086,1920,1080,1
SaccadeExp7_font12,17660,Colour,106,exp,5,4,close,1000,300,50,B,B,TRUE,626.518999999855,5fb079128b511d47995da086,1920,1080,1
SaccadeExp7_font12,17660,Colour,107,exp,5,1,close,1800,650,400,R,R,TRUE,236.354999999981,5fb079128b511d47995da086,1920,1080,1
SaccadeExp7_font12,17660,Colour,108,exp,5,3,close,1000,650,400,B,P,FALSE,821.476999999955,5fb079128b511d47995da086,1920,1080,1
SaccadeExp7_font12,17660,Colour,109,exp,5,2,close,200,300,50,P,P,TRUE,579.242999999784,5fb079128b511d47995da086,1920,1080,1
SaccadeExp7_font12,17660,Colour,110,exp,5,2,close,1400,300,50,P,P,TRUE,553.381000000052,5fb079128b511d47995da086,1920,1080,1
SaccadeExp7_font12,17660,Colour,111,exp,5,1,close,1000,650,400,P,P,TRUE,301.848999999929,5fb079128b511d47995da086,1920,1080,1
SaccadeExp7_font12,17660,Colour,112,exp,5,3,close,1400,300,50,B,R,FALSE,538.308999999892,5fb079128b511d47995da086,1920,1080,1
SaccadeExp7_font12,17660,Colour,113,exp,5,4,close,200,650,400,B,B,TRUE,308.410999999847,5fb079128b511d47995da086,1920,1080,1
SaccadeExp7_font12,17660,Colour,114,exp,5,2,close,1400,650,400,P,P,TRUE,671.884999999776,5fb079128b511d47995da086,1920,1080,1
SaccadeExp7_font12,17660,Colour,115,exp,5,1,close,200,650,400,P,P,TRUE,327.658999999985,5fb079128b511d47995da086,1920,1080,1
SaccadeExp7_font12,17660,Colour,116,exp,5,4,close,1400,650,400,P,P,TRUE,694.467000000179,5fb079128b511d47995da086,1920,1080,1
SaccadeExp7_font12,17660,Colour,117,exp,5,4,close,1800,650,400,B,B,TRUE,333.638999999966,5fb079128b511d47995da086,1920,1080,1
SaccadeExp7_font12,17660,Colour,118,exp,5,3,close,1400,300,50,P,P,TRUE,247.766999999993,5fb079128b511d47995da086,1920,1080,1
SaccadeExp7_font12,17660,Colour,119,exp,5,1,close,1000,300,50,P,B,FALSE,347.208999999799,5fb079128b511d47995da086,1920,1080,1
SaccadeExp7_font12,17660,Colour,120,exp,5,3,close,200,300,50,B,R,FALSE,691.623000000138,5fb079128b511d47995da086,1920,1080,1
SaccadeExp7_font12,17660,Random,1,exp,1,2,opposite,1800,650,400,R,R,TRUE,378.586999999825,5fb079128b511d47995da086,1920,1080,1
SaccadeExp7_font12,17660,Random,2,exp,1,3,close,600,650,400,B,R,FALSE,666.699000000022,5fb079128b511d47995da086,1920,1080,1
SaccadeExp7_font12,17660,Random,3,exp,2,3,close,200,650,400,B,P,FALSE,756.473000000231,5fb079128b511d47995da086,1920,1080,1
SaccadeExp7_font12,17660,Random,4,exp,1,3,close,1400,300,50,R,R,TRUE,555.950999999885,5fb079128b511d47995da086,1920,1080,1
SaccadeExp7_font12,17660,Random,5,exp,3,1,close,200,300,50,R,R,TRUE,987.373000000138,5fb079128b511d47995da086,1920,1080,1
SaccadeExp7_font12,17660,Random,6,exp,4,1,close,600,300,50,P,P,TRUE,514.495000000112,5fb079128b511d47995da086,1920,1080,1
SaccadeExp7_font12,17660,Random,7,exp,1,2,opposite,200,650,400,R,R,TRUE,359.930999999866,5fb079128b511d47995da086,1920,1080,1
SaccadeExp7_font12,17660,Random,8,exp,2,3,close,1800,300,50,R,P,FALSE,671.408999999985,5fb079128b511d47995da086,1920,1080,1
SaccadeExp7_font12,17660,Random,9,exp,3,2,close,1800,300,50,P,R,FALSE,934.233000000007,5fb079128b511d47995da086,1920,1080,1
SaccadeExp7_font12,17660,Random,10,exp,4,3,opposite,1000,300,50,P,R,FALSE,1324.36899999995,5fb079128b511d47995da086,1920,1080,1
SaccadeExp7_font12,17660,Random,11,exp,2,4,close,1400,650,400,B,R,FALSE,585.217000000179,5fb079128b511d47995da086,1920,1080,1
SaccadeExp7_font12,17660,Random,12,exp,3,1,close,600,650,400,B,P,FALSE,599.336999999825,5fb079128b511d47995da086,1920,1080,1
SaccadeExp7_font12,17660,Random,13,exp,4,1,close,200,650,400,R,R,TRUE,609.774999999907,5fb079128b511d47995da086,1920,1080,1
SaccadeExp7_font12,17660,Random,14,exp,1,3,close,600,300,50,P,P,TRUE,530.214999999851,5fb079128b511d47995da086,1920,1080,1
SaccadeExp7_font12,17660,Random,15,exp,2,4,close,1000,300,50,R,R,TRUE,725.334999999963,5fb079128b511d47995da086,1920,1080,1
SaccadeExp7_font12,17660,Random,16,exp,4,2,close,1800,650,400,P,P,TRUE,666.174999999814,5fb079128b511d47995da086,1920,1080,1
SaccadeExp7_font12,17660,Random,17,exp,2,4,close,1800,300,50,B,B,TRUE,1064.99899999984,5fb079128b511d47995da086,1920,1080,1
SaccadeExp7_font12,17660,Random,18,exp,1,2,opposite,200,300,50,B,B,TRUE,840.774999999907,5fb079128b511d47995da086,1920,1080,1
SaccadeExp7_font12,17660,Random,19,exp,2,4,close,200,300,50,R,B,FALSE,1146.875,5fb079128b511d47995da086,1920,1080,1
SaccadeExp7_font12,17660,Random,20,exp,2,1,opposite,1800,650,400,R,R,TRUE,431.399000000209,5fb079128b511d47995da086,1920,1080,1
SaccadeExp7_font12,17660,Random,21,exp,3,4,opposite,600,650,400,P,R,FALSE,820.512999999803,5fb079128b511d47995da086,1920,1080,1
SaccadeExp7_font12,17660,Random,22,exp,4,2,close,200,650,400,P,P,TRUE,642.293000000063,5fb079128b511d47995da086,1920,1080,1
SaccadeExp7_font12,17660,Random,23,exp,2,3,close,600,650,400,P,R,FALSE,791.415000000037,5fb079128b511d47995da086,1920,1080,1
SaccadeExp7_font12,17660,Random,24,exp,2,4,close,600,300,50,P,P,TRUE,441.529000000097,5fb079128b511d47995da086,1920,1080,1
SaccadeExp7_font12,17660,Random,25,exp,4,2,close,1000,650,400,P,P,TRUE,500.658999999985,5fb079128b511d47995da086,1920,1080,1
SaccadeExp7_font12,17660,Random,26,exp,1,3,close,1800,650,400,B,P,FALSE,628.157000000123,5fb079128b511d47995da086,1920,1080,1
SaccadeExp7_font12,17660,Random,27,exp,3,4,opposite,200,300,50,P,R,FALSE,521.915000000037,5fb079128b511d47995da086,1920,1080,1
SaccadeExp7_font12,17660,Random,28,exp,3,4,opposite,1000,650,400,P,P,TRUE,326.714999999851,5fb079128b511d47995da086,1920,1080,1
SaccadeExp7_font12,17660,Random,29,exp,1,2,opposite,1800,650,400,B,P,FALSE,687.538999999873,5fb079128b511d47995da086,1920,1080,1
SaccadeExp7_font12,17660,Random,30,exp,2,3,close,1000,300,50,B,P,FALSE,698.665000000037,5fb079128b511d47995da086,1920,1080,1
SaccadeExp7_font12,17660,Random,31,exp,4,1,close,1400,650,400,R,P,FALSE,861.154999999795,5fb079128b511d47995da086,1920,1080,1
SaccadeExp7_font12,17660,Random,32,exp,1,3,close,200,300,50,P,P,TRUE,441.589000000153,5fb079128b511d47995da086,1920,1080,1
SaccadeExp7_font12,17660,Random,33,exp,2,4,close,200,650,400,B,P,FALSE,477.686999999918,5fb079128b511d47995da086,1920,1080,1
SaccadeExp7_font12,17660,Random,34,exp,1,3,close,1000,650,400,P,P,TRUE,436.48499999987,5fb079128b511d47995da086,1920,1080,1
SaccadeExp7_font12,17660,Random,35,exp,4,3,opposite,200,650,400,P,P,TRUE,342.251000000164,5fb079128b511d47995da086,1920,1080,1
SaccadeExp7_font12,17660,Random,36,exp,1,3,close,1400,650,400,B,P,FALSE,585.393000000156,5fb079128b511d47995da086,1920,1080,1
SaccadeExp7_font12,17660,Random,37,exp,1,2,opposite,600,650,400,R,R,TRUE,535.179000000004,5fb079128b511d47995da086,1920,1080,1
SaccadeExp7_font12,17660,Random,38,exp,4,1,close,200,300,50,B,R,FALSE,576.935000000056,5fb079128b511d47995da086,1920,1080,1
SaccadeExp7_font12,17660,Random,39,exp,2,4,close,1000,300,50,B,R,FALSE,567.723000000231,5fb079128b511d47995da086,1920,1080,1
SaccadeExp7_font12,17660,Random,40,exp,2,3,close,1800,650,400,P,P,TRUE,346.225000000093,5fb079128b511d47995da086,1920,1080,1
SaccadeExp7_font12,17660,Random,41,exp,1,4,close,600,300,50,R,P,FALSE,516.654999999795,5fb079128b511d47995da086,1920,1080,1
SaccadeExp7_font12,17660,Random,42,exp,4,2,close,200,300,50,R,R,TRUE,510.408999999985,5fb079128b511d47995da086,1920,1080,1
SaccadeExp7_font12,17660,Random,43,exp,4,1,close,200,650,400,P,P,TRUE,376.842999999877,5fb079128b511d47995da086,1920,1080,1
SaccadeExp7_font12,17660,Random,44,exp,2,4,close,200,300,50,B,P,FALSE,537.591000000015,5fb079128b511d47995da086,1920,1080,1
SaccadeExp7_font12,17660,Random,45,exp,3,1,close,1400,650,400,P,P,TRUE,345.740999999922,5fb079128b511d47995da086,1920,1080,1
SaccadeExp7_font12,17660,Random,46,exp,1,3,close,600,300,50,B,P,FALSE,439.171000000089,5fb079128b511d47995da086,1920,1080,1
SaccadeExp7_font12,17660,Random,47,exp,2,4,close,1000,650,400,R,P,FALSE,462.300999999978,5fb079128b511d47995da086,1920,1080,1
SaccadeExp7_font12,17660,Random,48,exp,2,4,close,1800,650,400,P,P,TRUE,303.131000000052,5fb079128b511d47995da086,1920,1080,1
SaccadeExp7_font12,17660,Random,49,exp,4,1,close,1400,650,400,B,P,FALSE,347.604999999981,5fb079128b511d47995da086,1920,1080,1
SaccadeExp7_font12,17660,Random,50,exp,4,1,close,200,650,400,B,P,FALSE,464.032999999821,5fb079128b511d47995da086,1920,1080,1
SaccadeExp7_font12,17660,Random,51,exp,3,1,close,600,300,50,R,P,FALSE,759.800999999978,5fb079128b511d47995da086,1920,1080,1
SaccadeExp7_font12,17660,Random,52,exp,2,1,opposite,200,300,50,P,P,TRUE,386.231000000145,5fb079128b511d47995da086,1920,1080,1
SaccadeExp7_font12,17660,Random,53,exp,3,1,close,1400,300,50,B,P,FALSE,422.361000000034,5fb079128b511d47995da086,1920,1080,1
SaccadeExp7_font12,17660,Random,54,exp,1,3,close,600,650,400,R,P,FALSE,314.140999999829,5fb079128b511d47995da086,1920,1080,1
SaccadeExp7_font12,17660,Random,55,exp,1,4,close,1400,650,400,P,P,TRUE,389.617000000086,5fb079128b511d47995da086,1920,1080,1
SaccadeExp7_font12,17660,Random,56,exp,4,3,opposite,1000,650,400,R,R,TRUE,397.745000000112,5fb079128b511d47995da086,1920,1080,1
SaccadeExp7_font12,17660,Random,57,exp,2,1,opposite,1800,300,50,B,R,FALSE,535.225000000093,5fb079128b511d47995da086,1920,1080,1
SaccadeExp7_font12,17660,Random,58,exp,2,1,opposite,1800,300,50,P,P,TRUE,1580.37699999986,5fb079128b511d47995da086,1920,1080,1
SaccadeExp7_font12,17660,Random,59,exp,4,2,close,1000,650,400,B,P,FALSE,862.55299999984,5fb079128b511d47995da086,1920,1080,1
SaccadeExp7_font12,17660,Random,60,exp,1,2,opposite,1400,300,50,R,P,FALSE,560.368999999948,5fb079128b511d47995da086,1920,1080,1
SaccadeExp7_font12,17660,Random,61,exp,3,4,opposite,600,650,400,R,R,TRUE,582.280999999959,5fb079128b511d47995da086,1920,1080,1
SaccadeExp7_font12,17660,Random,62,exp,2,1,opposite,1800,300,50,R,P,FALSE,1376.43500000006,5fb079128b511d47995da086,1920,1080,1
SaccadeExp7_font12,17660,Random,63,exp,2,1,opposite,1800,650,400,P,P,TRUE,287.634999999776,5fb079128b511d47995da086,1920,1080,1
SaccadeExp7_font12,17660,Random,64,exp,3,1,close,1000,650,400,B,P,FALSE,524.759000000078,5fb079128b511d47995da086,1920,1080,1
SaccadeExp7_font12,17660,Random,65,exp,2,4,close,200,650,400,P,P,TRUE,393.526999999769,5fb079128b511d47995da086,1920,1080,1
SaccadeExp7_font12,17660,Random,66,exp,3,1,close,600,650,400,P,P,TRUE,422.638999999966,5fb079128b511d47995da086,1920,1080,1
SaccadeExp7_font12,17660,Random,67,exp,4,3,opposite,1800,650,400,R,P,FALSE,794.467000000179,5fb079128b511d47995da086,1920,1080,1
SaccadeExp7_font12,17660,Random,68,exp,1,2,opposite,1000,300,50,B,P,FALSE,705.930999999866,5fb079128b511d47995da086,1920,1080,1
SaccadeExp7_font12,17660,Random,69,exp,1,4,close,200,650,400,R,R,TRUE,586.373000000138,5fb079128b511d47995da086,1920,1080,1
SaccadeExp7_font12,17660,Random,70,exp,3,2,close,600,300,50,B,R,FALSE,567.478999999817,5fb079128b511d47995da086,1920,1080,1
SaccadeExp7_font12,17660,Random,71,exp,4,3,opposite,600,300,50,R,R,TRUE,797.253000000026,5fb079128b511d47995da086,1920,1080,1
SaccadeExp7_font12,17660,Random,72,exp,3,1,close,1000,300,50,P,P,TRUE,440.717000000179,5fb079128b511d47995da086,1920,1080,1
SaccadeExp7_font12,17660,Random,73,exp,3,4,opposite,1000,300,50,P,P,TRUE,442.833000000101,5fb079128b511d47995da086,1920,1080,1
SaccadeExp7_font12,17660,Random,74,exp,3,1,close,1000,300,50,R,R,TRUE,633.949000000022,5fb079128b511d47995da086,1920,1080,1
SaccadeExp7_font12,17660,Random,75,exp,2,4,close,1400,300,50,R,R,TRUE,605.089000000153,5fb079128b511d47995da086,1920,1080,1
SaccadeExp7_font12,17660,Random,76,exp,2,1,opposite,1000,300,50,B,P,FALSE,367.544999999925,5fb079128b511d47995da086,1920,1080,1
SaccadeExp7_font12,17660,Random,77,exp,1,2,opposite,600,650,400,B,R,FALSE,467.322999999858,5fb079128b511d47995da086,1920,1080,1
SaccadeExp7_font12,17660,Random,78,exp,3,2,close,1800,300,50,B,P,FALSE,386.138999999966,5fb079128b511d47995da086,1920,1080,1
SaccadeExp7_font12,17660,Random,79,exp,3,4,opposite,1400,300,50,P,P,TRUE,395.268999999855,5fb079128b511d47995da086,1920,1080,1
SaccadeExp7_font12,17660,Random,80,exp,4,2,close,1000,300,50,P,P,TRUE,498.717000000179,5fb079128b511d47995da086,1920,1080,1
SaccadeExp7_font12,17660,Random,81,exp,3,2,close,1400,650,400,B,P,FALSE,334.199000000022,5fb079128b511d47995da086,1920,1080,1
SaccadeExp7_font12,17660,Random,82,exp,4,3,opposite,1400,300,50,B,R,FALSE,668.995000000112,5fb079128b511d47995da086,1920,1080,1
SaccadeExp7_font12,17660,Random,83,exp,1,2,opposite,1400,300,50,B,R,FALSE,558.80299999984,5fb079128b511d47995da086,1920,1080,1
SaccadeExp7_font12,17660,Random,84,exp,4,1,close,600,650,400,R,R,TRUE,511.921000000089,5fb079128b511d47995da086,1920,1080,1
SaccadeExp7_font12,17660,Random,85,exp,3,4,opposite,1800,650,400,B,R,FALSE,1455.75300000003,5fb079128b511d47995da086,1920,1080,1
SaccadeExp7_font12,17660,Random,86,exp,4,1,close,1000,650,400,P,P,TRUE,474.257000000216,5fb079128b511d47995da086,1920,1080,1
SaccadeExp7_font12,17660,Random,87,exp,1,2,opposite,600,300,50,R,R,TRUE,756.024999999907,5fb079128b511d47995da086,1920,1080,1
SaccadeExp7_font12,17660,Random,88,exp,1,3,close,1000,300,50,R,P,FALSE,533.487000000197,5fb079128b511d47995da086,1920,1080,1
SaccadeExp7_font12,17660,Random,89,exp,1,4,close,1400,300,50,B,P,FALSE,597.623000000138,5fb079128b511d47995da086,1920,1080,1
SaccadeExp7_font12,17660,Random,90,exp,4,2,close,1000,650,400,R,P,FALSE,538.092999999877,5fb079128b511d47995da086,1920,1080,1
SaccadeExp7_font12,17660,Random,91,exp,2,1,opposite,1800,650,400,B,P,FALSE,1507.25900000008,5fb079128b511d47995da086,1920,1080,1
SaccadeExp7_font12,17660,Random,92,exp,4,2,close,1400,650,400,P,R,FALSE,674.780999999959,5fb079128b511d47995da086,1920,1080,1
SaccadeExp7_font12,17660,Random,93,exp,3,1,close,600,300,50,B,P,FALSE,1183.55700000003,5fb079128b511d47995da086,1920,1080,1
SaccadeExp7_font12,17660,Random,94,exp,1,2,opposite,1800,300,50,R,R,TRUE,661.73499999987,5fb079128b511d47995da086,1920,1080,1
SaccadeExp7_font12,17660,Random,95,exp,1,3,close,1800,300,50,P,P,TRUE,626.225000000093,5fb079128b511d47995da086,1920,1080,1
SaccadeExp7_font12,17660,Random,96,exp,1,3,close,1000,650,400,B,P,FALSE,793.362999999896,5fb079128b511d47995da086,1920,1080,1
SaccadeExp7_font12,17660,Random,97,exp,3,1,close,1400,300,50,R,P,FALSE,2029.50900000008,5fb079128b511d47995da086,1920,1080,1
SaccadeExp7_font12,17660,Random,98,exp,1,3,close,200,300,50,B,P,FALSE,533.657000000123,5fb079128b511d47995da086,1920,1080,1
SaccadeExp7_font12,17660,Random,99,exp,2,4,close,600,650,400,B,P,FALSE,586.774999999907,5fb079128b511d47995da086,1920,1080,1
SaccadeExp7_font12,17660,Random,100,exp,2,3,close,200,650,400,R,B,FALSE,890.87900000019,5fb079128b511d47995da086,1920,1080,1
SaccadeExp7_font12,17660,Random,101,exp,3,2,close,1400,650,400,R,B,FALSE,650.043000000063,5fb079128b511d47995da086,1920,1080,1
SaccadeExp7_font12,17660,Random,102,exp,3,2,close,1400,300,50,P,P,TRUE,536.516999999993,5fb079128b511d47995da086,1920,1080,1
SaccadeExp7_font12,17660,Random,103,exp,4,2,close,600,300,50,P,P,TRUE,456.62099999981,5fb079128b511d47995da086,1920,1080,1
SaccadeExp7_font12,17660,Random,104,exp,1,2,opposite,200,650,400,B,B,TRUE,541.055000000168,5fb079128b511d47995da086,1920,1080,1
SaccadeExp7_font12,17660,Random,105,exp,2,3,close,200,300,50,R,P,FALSE,528.143000000156,5fb079128b511d47995da086,1920,1080,1
SaccadeExp7_font12,17660,Random,106,exp,1,4,close,1800,300,50,R,B,FALSE,866.961000000127,5fb079128b511d47995da086,1920,1080,1
SaccadeExp7_font12,17660,Random,107,exp,4,1,close,1000,650,400,R,R,TRUE,475.774999999907,5fb079128b511d47995da086,1920,1080,1
SaccadeExp7_font12,17660,Random,108,exp,2,4,close,1000,650,400,B,R,FALSE,387.572999999858,5fb079128b511d47995da086,1920,1080,1
SaccadeExp7_font12,17660,Random,109,exp,2,3,close,1400,300,50,P,P,TRUE,497.703000000212,5fb079128b511d47995da086,1920,1080,1
SaccadeExp7_font12,17660,Random,110,exp,2,1,opposite,1400,300,50,P,P,TRUE,404.171000000089,5fb079128b511d47995da086,1920,1080,1
SaccadeExp7_font12,17660,Random,111,exp,3,2,close,1000,300,50,R,P,FALSE,440.618999999948,5fb079128b511d47995da086,1920,1080,1
SaccadeExp7_font12,17660,Random,112,exp,3,4,opposite,1800,300,50,P,P,TRUE,529.766999999993,5fb079128b511d47995da086,1920,1080,1
SaccadeExp7_font12,17660,Random,113,exp,1,3,close,1400,650,400,R,P,FALSE,1536.5830000001,5fb079128b511d47995da086,1920,1080,1
SaccadeExp7_font12,17660,Random,114,exp,1,4,close,600,300,50,B,R,FALSE,497.728999999817,5fb079128b511d47995da086,1920,1080,1
SaccadeExp7_font12,17660,Random,115,exp,1,4,close,1800,650,400,R,R,TRUE,386.226999999955,5fb079128b511d47995da086,1920,1080,1
SaccadeExp7_font12,17660,Random,116,exp,1,3,close,1800,300,50,B,P,FALSE,821.373000000138,5fb079128b511d47995da086,1920,1080,1
SaccadeExp7_font12,17660,Random,117,exp,1,2,opposite,600,650,400,P,P,TRUE,386.169000000227,5fb079128b511d47995da086,1920,1080,1
SaccadeExp7_font12,17660,Random,118,exp,1,2,opposite,200,300,50,P,P,TRUE,497.251000000164,5fb079128b511d47995da086,1920,1080,1
SaccadeExp7_font12,17660,Random,119,exp,4,3,opposite,1400,650,400,P,P,TRUE,435.733000000007,5fb079128b511d47995da086,1920,1080,1
SaccadeExp7_font12,17660,Random,120,exp,3,4,opposite,1400,650,400,R,R,TRUE,434.87900000019,5fb079128b511d47995da086,1920,1080,1
SaccadeExp7_font12,17659,Anti,1,exp,3,4,opposite,600,650,400,P,P,TRUE,1442,60673bc6496cefa66a61e737,1920,1080,1
SaccadeExp7_font12,17659,Anti,2,exp,4,3,opposite,1800,650,400,P,B,FALSE,2215,60673bc6496cefa66a61e737,1920,1080,1
SaccadeExp7_font12,17659,Anti,3,exp,3,4,opposite,1800,300,50,B,B,TRUE,8512,60673bc6496cefa66a61e737,1920,1080,1
SaccadeExp7_font12,17659,Anti,4,exp,2,1,opposite,600,300,50,P,P,TRUE,23566,60673bc6496cefa66a61e737,1920,1080,1
SaccadeExp7_font12,17659,Anti,5,exp,1,2,opposite,200,300,50,P,B,FALSE,1203,60673bc6496cefa66a61e737,1920,1080,1
SaccadeExp7_font12,17659,Anti,6,exp,2,1,opposite,1800,650,400,B,B,TRUE,1714,60673bc6496cefa66a61e737,1920,1080,1
SaccadeExp7_font12,17659,Anti,7,exp,2,1,opposite,600,650,400,R,R,TRUE,15502,60673bc6496cefa66a61e737,1920,1080,1
SaccadeExp7_font12,17659,Anti,8,exp,2,1,opposite,1800,650,400,P,P,TRUE,3507,60673bc6496cefa66a61e737,1920,1080,1
SaccadeExp7_font12,17659,Anti,9,exp,3,4,opposite,200,300,50,R,R,TRUE,699,60673bc6496cefa66a61e737,1920,1080,1
SaccadeExp7_font12,17659,Anti,10,exp,3,4,opposite,1000,300,50,R,R,TRUE,1886,60673bc6496cefa66a61e737,1920,1080,1
SaccadeExp7_font12,17659,Anti,11,exp,2,1,opposite,1400,650,400,B,B,TRUE,1124,60673bc6496cefa66a61e737,1920,1080,1
SaccadeExp7_font12,17659,Anti,12,exp,3,4,opposite,200,300,50,B,B,TRUE,700.000000000058,60673bc6496cefa66a61e737,1920,1080,1
SaccadeExp7_font12,17659,Anti,13,exp,3,4,opposite,1800,300,50,P,B,FALSE,576,60673bc6496cefa66a61e737,1920,1080,1
SaccadeExp7_font12,17659,Anti,14,exp,2,1,opposite,200,650,400,P,P,TRUE,1341,60673bc6496cefa66a61e737,1920,1080,1
SaccadeExp7_font12,17659,Anti,15,exp,4,3,opposite,1000,650,400,P,P,TRUE,1034,60673bc6496cefa66a61e737,1920,1080,1
SaccadeExp7_font12,17659,Anti,16,exp,3,4,opposite,1400,650,400,R,R,TRUE,1121,60673bc6496cefa66a61e737,1920,1080,1
SaccadeExp7_font12,17659,Anti,17,exp,3,4,opposite,600,300,50,R,R,TRUE,791,60673bc6496cefa66a61e737,1920,1080,1
SaccadeExp7_font12,17659,Anti,18,exp,1,2,opposite,600,650,400,R,B,FALSE,939,60673bc6496cefa66a61e737,1920,1080,1
SaccadeExp7_font12,17659,Anti,19,exp,4,3,opposite,1800,300,50,R,R,TRUE,2067,60673bc6496cefa66a61e737,1920,1080,1
SaccadeExp7_font12,17659,Anti,20,exp,4,3,opposite,1800,300,50,P,P,TRUE,1072,60673bc6496cefa66a61e737,1920,1080,1
SaccadeExp7_font12,17659,Anti,21,exp,2,1,opposite,200,650,400,B,B,TRUE,841,60673bc6496cefa66a61e737,1920,1080,1
SaccadeExp7_font12,17659,Anti,22,exp,1,2,opposite,1800,650,400,R,R,TRUE,730,60673bc6496cefa66a61e737,1920,1080,1
SaccadeExp7_font12,17659,Anti,23,exp,3,4,opposite,600,300,50,P,R,FALSE,1296,60673bc6496cefa66a61e737,1920,1080,1
SaccadeExp7_font12,17659,Anti,24,exp,1,2,opposite,1800,300,50,P,P,TRUE,587,60673bc6496cefa66a61e737,1920,1080,1
SaccadeExp7_font12,17659,Anti,25,exp,4,3,opposite,1400,650,400,R,B,FALSE,631,60673bc6496cefa66a61e737,1920,1080,1
SaccadeExp7_font12,17659,Anti,26,exp,3,4,opposite,1400,650,400,P,P,TRUE,1135,60673bc6496cefa66a61e737,1920,1080,1
SaccadeExp7_font12,17659,Anti,27,exp,4,3,opposite,600,650,400,B,B,TRUE,934,60673bc6496cefa66a61e737,1920,1080,1
SaccadeExp7_font12,17659,Anti,28,exp,3,4,opposite,1400,300,50,B,B,TRUE,481,60673bc6496cefa66a61e737,1920,1080,1
SaccadeExp7_font12,17659,Anti,29,exp,1,2,opposite,200,650,400,R,R,TRUE,834,60673bc6496cefa66a61e737,1920,1080,1
SaccadeExp7_font12,17659,Anti,30,exp,1,2,opposite,600,650,400,B,B,TRUE,933,60673bc6496cefa66a61e737,1920,1080,1
SaccadeExp7_font12,17659,Anti,31,exp,4,3,opposite,1800,650,400,B,B,TRUE,722,60673bc6496cefa66a61e737,1920,1080,1
SaccadeExp7_font12,17659,Anti,32,exp,3,4,opposite,200,650,400,P,P,TRUE,840,60673bc6496cefa66a61e737,1920,1080,1
SaccadeExp7_font12,17659,Anti,33,exp,2,1,opposite,600,650,400,P,P,TRUE,939,60673bc6496cefa66a61e737,1920,1080,1
SaccadeExp7_font12,17659,Anti,34,exp,4,3,opposite,1000,300,50,P,P,TRUE,391,60673bc6496cefa66a61e737,1920,1080,1
SaccadeExp7_font12,17659,Anti,35,exp,2,1,opposite,1800,300,50,B,B,TRUE,585,60673bc6496cefa66a61e737,1920,1080,1
SaccadeExp7_font12,17659,Anti,36,exp,1,2,opposite,1400,650,400,P,P,TRUE,627,60673bc6496cefa66a61e737,1920,1080,1
SaccadeExp7_font12,17659,Anti,37,exp,4,3,opposite,200,300,50,P,P,TRUE,702,60673bc6496cefa66a61e737,1920,1080,1
SaccadeExp7_font12,17659,Anti,38,exp,1,2,opposite,1800,300,50,R,R,TRUE,1074,60673bc6496cefa66a61e737,1920,1080,1
SaccadeExp7_font12,17659,Anti,39,exp,3,4,opposite,600,650,400,B,B,TRUE,939,60673bc6496cefa66a61e737,1920,1080,1
SaccadeExp7_font12,17659,Anti,40,exp,4,3,opposite,600,300,50,R,R,TRUE,792,60673bc6496cefa66a61e737,1920,1080,1
SaccadeExp7_font12,17659,Anti,41,exp,4,3,opposite,1800,300,50,B,B,TRUE,586,60673bc6496cefa66a61e737,1920,1080,1
SaccadeExp7_font12,17659,Anti,42,exp,1,2,opposite,1400,300,50,B,B,TRUE,483,60673bc6496cefa66a61e737,1920,1080,1
SaccadeExp7_font12,17659,Anti,43,exp,1,2,opposite,1000,650,400,B,B,TRUE,532,60673bc6496cefa66a61e737,1920,1080,1
SaccadeExp7_font12,17659,Anti,44,exp,2,1,opposite,600,300,50,B,B,TRUE,784,60673bc6496cefa66a61e737,1920,1080,1
SaccadeExp7_font12,17659,Anti,45,exp,3,4,opposite,200,650,400,B,B,TRUE,837,60673bc6496cefa66a61e737,1920,1080,1
SaccadeExp7_font12,17659,Anti,46,exp,3,4,opposite,1000,300,50,P,P,TRUE,886,60673bc6496cefa66a61e737,1920,1080,1
SaccadeExp7_font12,17659,Anti,47,exp,3,4,opposite,1800,650,400,R,R,TRUE,724,60673bc6496cefa66a61e737,1920,1080,1
SaccadeExp7_font12,17659,Anti,48,exp,3,4,opposite,1000,300,50,B,R,FALSE,1383,60673bc6496cefa66a61e737,1920,1080,1
SaccadeExp7_font12,17659,Anti,49,exp,3,4,opposite,1400,300,50,R,B,FALSE,977,60673bc6496cefa66a61e737,1920,1080,1
SaccadeExp7_font12,17659,Anti,50,exp,1,2,opposite,1400,300,50,R,R,TRUE,492,60673bc6496cefa66a61e737,1920,1080,1
SaccadeExp7_font12,17659,Anti,51,exp,1,2,opposite,200,650,400,B,B,TRUE,845,60673bc6496cefa66a61e737,1920,1080,1
SaccadeExp7_font12,17659,Anti,52,exp,3,4,opposite,200,300,50,P,B,FALSE,702.000000000058,60673bc6496cefa66a61e737,1920,1080,1
SaccadeExp7_font12,17659,Anti,53,exp,4,3,opposite,1800,650,400,R,B,FALSE,723,60673bc6496cefa66a61e737,1920,1080,1
SaccadeExp7_font12,17659,Anti,54,exp,2,1,opposite,200,300,50,P,B,FALSE,682,60673bc6496cefa66a61e737,1920,1080,1
SaccadeExp7_font12,17659,Anti,55,exp,4,3,opposite,1400,300,50,R,B,FALSE,975,60673bc6496cefa66a61e737,1920,1080,1
SaccadeExp7_font12,17659,Anti,56,exp,3,4,opposite,600,650,400,R,B,FALSE,443.999999999942,60673bc6496cefa66a61e737,1920,1080,1
SaccadeExp7_font12,17659,Anti,57,exp,2,1,opposite,1400,650,400,R,R,TRUE,622,60673bc6496cefa66a61e737,1920,1080,1
SaccadeExp7_font12,17659,Anti,58,exp,4,3,opposite,200,650,400,P,P,TRUE,841,60673bc6496cefa66a61e737,1920,1080,1
SaccadeExp7_font12,17659,Anti,59,exp,1,2,opposite,600,650,400,P,P,TRUE,445,60673bc6496cefa66a61e737,1920,1080,1
SaccadeExp7_font12,17659,Anti,60,exp,1,2,opposite,1000,650,400,R,R,TRUE,525,60673bc6496cefa66a61e737,1920,1080,1
SaccadeExp7_font12,17659,Anti,61,exp,2,1,opposite,1400,650,400,P,R,FALSE,1125,60673bc6496cefa66a61e737,1920,1080,1
SaccadeExp7_font12,17659,Anti,62,exp,4,3,opposite,600,300,50,P,P,TRUE,1273,60673bc6496cefa66a61e737,1920,1080,1
SaccadeExp7_font12,17659,Anti,63,exp,2,1,opposite,1800,300,50,R,R,TRUE,583.000000000116,60673bc6496cefa66a61e737,1920,1080,1
SaccadeExp7_font12,17659,Anti,64,exp,2,1,opposite,600,650,400,B,B,TRUE,452,60673bc6496cefa66a61e737,1920,1080,1
SaccadeExp7_font12,17659,Anti,65,exp,2,1,opposite,1000,650,400,R,R,TRUE,1029,60673bc6496cefa66a61e737,1920,1080,1
SaccadeExp7_font12,17659,Anti,66,exp,2,1,opposite,1000,300,50,B,R,FALSE,878,60673bc6496cefa66a61e737,1920,1080,1
SaccadeExp7_font12,17659,Anti,67,exp,2,1,opposite,1400,300,50,R,R,TRUE,475,60673bc6496cefa66a61e737,1920,1080,1
SaccadeExp7_font12,17659,Anti,68,exp,1,2,opposite,1000,650,400,P,P,TRUE,1034,60673bc6496cefa66a61e737,1920,1080,1
SaccadeExp7_font12,17659,Anti,69,exp,2,1,opposite,1000,650,400,P,P,TRUE,534,60673bc6496cefa66a61e737,1920,1080,1
SaccadeExp7_font12,17659,Anti,70,exp,1,2,opposite,1000,300,50,B,B,TRUE,1375,60673bc6496cefa66a61e737,1920,1080,1
SaccadeExp7_font12,17659,Anti,71,exp,4,3,opposite,600,650,400,R,B,FALSE,923,60673bc6496cefa66a61e737,1920,1080,1
SaccadeExp7_font12,17659,Anti,72,exp,2,1,opposite,200,650,400,R,R,TRUE,844.000000000116,60673bc6496cefa66a61e737,1920,1080,1
SaccadeExp7_font12,17659,Anti,73,exp,4,3,opposite,200,300,50,B,B,TRUE,685,60673bc6496cefa66a61e737,1920,1080,1
SaccadeExp7_font12,17659,Anti,74,exp,3,4,opposite,1400,650,400,B,B,TRUE,628,60673bc6496cefa66a61e737,1920,1080,1
SaccadeExp7_font12,17659,Anti,75,exp,2,1,opposite,1000,650,400,B,B,TRUE,526.000000000116,60673bc6496cefa66a61e737,1920,1080,1
SaccadeExp7_font12,17659,Anti,76,exp,1,2,opposite,600,300,50,B,B,TRUE,796,60673bc6496cefa66a61e737,1920,1080,1
SaccadeExp7_font12,17659,Anti,77,exp,1,2,opposite,600,300,50,R,R,TRUE,782,60673bc6496cefa66a61e737,1920,1080,1
SaccadeExp7_font12,17659,Anti,78,exp,1,2,opposite,200,300,50,R,R,TRUE,691,60673bc6496cefa66a61e737,1920,1080,1
SaccadeExp7_font12,17659,Anti,79,exp,3,4,opposite,1000,650,400,P,B,FALSE,521,60673bc6496cefa66a61e737,1920,1080,1
SaccadeExp7_font12,17659,Anti,80,exp,4,3,opposite,200,300,50,R,R,TRUE,1192,60673bc6496cefa66a61e737,1920,1080,1
SaccadeExp7_font12,17659,Anti,81,exp,2,1,opposite,200,300,50,R,R,TRUE,700,60673bc6496cefa66a61e737,1920,1080,1
SaccadeExp7_font12,17659,Anti,82,exp,4,3,opposite,1000,650,400,B,B,TRUE,531,60673bc6496cefa66a61e737,1920,1080,1
SaccadeExp7_font12,17659,Anti,83,exp,4,3,opposite,1400,650,400,B,B,TRUE,624,60673bc6496cefa66a61e737,1920,1080,1
SaccadeExp7_font12,17659,Anti,84,exp,1,2,opposite,1000,300,50,R,R,TRUE,394,60673bc6496cefa66a61e737,1920,1080,1
SaccadeExp7_font12,17659,Anti,85,exp,1,2,opposite,1400,650,400,B,B,TRUE,620,60673bc6496cefa66a61e737,1920,1080,1
SaccadeExp7_font12,17659,Anti,86,exp,3,4,opposite,1000,650,400,R,R,TRUE,535,60673bc6496cefa66a61e737,1920,1080,1
SaccadeExp7_font12,17659,Anti,87,exp,2,1,opposite,1800,650,400,R,R,TRUE,723,60673bc6496cefa66a61e737,1920,1080,1
SaccadeExp7_font12,17659,Anti,88,exp,1,2,opposite,200,300,50,B,R,FALSE,1193.00000000012,60673bc6496cefa66a61e737,1920,1080,1
SaccadeExp7_font12,17659,Anti,89,exp,1,2,opposite,1800,300,50,B,B,TRUE,569,60673bc6496cefa66a61e737,1920,1080,1
SaccadeExp7_font12,17659,Anti,90,exp,4,3,opposite,1000,300,50,R,R,TRUE,884,60673bc6496cefa66a61e737,1920,1080,1
SaccadeExp7_font12,17659,Anti,91,exp,4,3,opposite,1400,300,50,B,R,FALSE,978,60673bc6496cefa66a61e737,1920,1080,1
SaccadeExp7_font12,17659,Anti,92,exp,1,2,opposite,1000,300,50,P,R,FALSE,875,60673bc6496cefa66a61e737,1920,1080,1
SaccadeExp7_font12,17659,Anti,93,exp,1,2,opposite,1800,650,400,P,P,TRUE,714,60673bc6496cefa66a61e737,1920,1080,1
SaccadeExp7_font12,17659,Anti,94,exp,3,4,opposite,1400,300,50,P,R,FALSE,973,60673bc6496cefa66a61e737,1920,1080,1
SaccadeExp7_font12,17659,Anti,95,exp,1,2,opposite,600,300,50,P,R,FALSE,776,60673bc6496cefa66a61e737,1920,1080,1
SaccadeExp7_font12,17659,Anti,96,exp,3,4,opposite,1800,650,400,P,P,TRUE,714,60673bc6496cefa66a61e737,1920,1080,1
