Exp,ID,Block,trial,trial_type,cueLoc,stimLoc,locDist,FixDur,SOA,CTI,stim,response,correct,RTms,prolific_id,xPixels,yPixels,dpi
SaccadeExp7_font16,17711,No,1,exp,5,2,close,1000,650,400,B,B,TRUE,734.761000002967,5f0e13040fa43b1294cad639,1920,1040,1
SaccadeExp7_font16,17711,No,2,exp,5,4,close,1800,300,50,B,B,TRUE,634.502999998513,5f0e13040fa43b1294cad639,1920,1040,1
SaccadeExp7_font16,17711,No,3,exp,5,2,close,1800,650,400,B,B,TRUE,380.191999998497,5f0e13040fa43b1294cad639,1920,1040,1
SaccadeExp7_font16,17711,No,4,exp,5,4,close,200,300,50,P,P,TRUE,569.374999998516,5f0e13040fa43b1294cad639,1920,1040,1
SaccadeExp7_font16,17711,No,5,exp,5,3,close,200,300,50,P,P,TRUE,525.534000002983,5f0e13040fa43b1294cad639,1920,1040,1
SaccadeExp7_font16,17711,No,6,exp,5,3,close,1800,650,400,P,P,TRUE,435.872000002972,5f0e13040fa43b1294cad639,1920,1040,1
SaccadeExp7_font16,17711,No,7,exp,5,4,close,1400,300,50,B,B,TRUE,588.607000002987,5f0e13040fa43b1294cad639,1920,1040,1
SaccadeExp7_font16,17711,No,8,exp,5,4,close,200,650,400,P,P,TRUE,338.359000004479,5f0e13040fa43b1294cad639,1920,1040,1
SaccadeExp7_font16,17711,No,9,exp,5,4,close,600,300,50,P,P,TRUE,320.227000004466,5f0e13040fa43b1294cad639,1920,1040,1
SaccadeExp7_font16,17711,No,10,exp,5,4,close,200,650,400,R,R,TRUE,336.088000001502,5f0e13040fa43b1294cad639,1920,1040,1
SaccadeExp7_font16,17711,No,11,exp,5,1,close,1000,300,50,P,P,TRUE,381.996999998519,5f0e13040fa43b1294cad639,1920,1040,1
SaccadeExp7_font16,17711,No,12,exp,5,3,close,200,650,400,R,R,TRUE,362.90800000148,5f0e13040fa43b1294cad639,1920,1040,1
SaccadeExp7_font16,17711,No,13,exp,5,4,close,200,300,50,B,B,TRUE,663.964999998512,5f0e13040fa43b1294cad639,1920,1040,1
SaccadeExp7_font16,17711,No,14,exp,5,1,close,1000,300,50,R,R,TRUE,504.184999998513,5f0e13040fa43b1294cad639,1920,1040,1
SaccadeExp7_font16,17711,No,15,exp,5,1,close,1800,300,50,P,P,TRUE,397.90400000001,5f0e13040fa43b1294cad639,1920,1040,1
SaccadeExp7_font16,17711,No,16,exp,5,3,close,600,650,400,B,B,TRUE,458.974999998522,5f0e13040fa43b1294cad639,1920,1040,1
SaccadeExp7_font16,17711,No,17,exp,5,3,close,1000,650,400,B,B,TRUE,469.398000004468,5f0e13040fa43b1294cad639,1920,1040,1
SaccadeExp7_font16,17711,No,18,exp,5,2,close,600,300,50,B,B,TRUE,397.259000002989,5f0e13040fa43b1294cad639,1920,1040,1
SaccadeExp7_font16,17711,No,19,exp,5,2,close,1000,300,50,B,B,TRUE,344.777999998507,5f0e13040fa43b1294cad639,1920,1040,1
SaccadeExp7_font16,17711,No,20,exp,5,3,close,1800,300,50,R,R,TRUE,469.393000001495,5f0e13040fa43b1294cad639,1920,1040,1
SaccadeExp7_font16,17711,No,21,exp,5,3,close,600,650,400,R,R,TRUE,366.759000002989,5f0e13040fa43b1294cad639,1920,1040,1
SaccadeExp7_font16,17711,No,22,exp,5,2,close,600,650,400,B,B,TRUE,460.532999999996,5f0e13040fa43b1294cad639,1920,1040,1
SaccadeExp7_font16,17711,No,23,exp,5,4,close,1800,650,400,B,B,TRUE,421.709000004485,5f0e13040fa43b1294cad639,1920,1040,1
SaccadeExp7_font16,17711,No,24,exp,5,1,close,1400,650,400,R,R,TRUE,448.820000000007,5f0e13040fa43b1294cad639,1920,1040,1
SaccadeExp7_font16,17711,No,25,exp,5,1,close,1800,650,400,R,R,TRUE,329.823999998509,5f0e13040fa43b1294cad639,1920,1040,1
SaccadeExp7_font16,17711,No,26,exp,5,4,close,1400,650,400,P,P,TRUE,312.010000001465,5f0e13040fa43b1294cad639,1920,1040,1
SaccadeExp7_font16,17711,No,27,exp,5,1,close,600,650,400,P,P,TRUE,280.685000002966,5f0e13040fa43b1294cad639,1920,1040,1
SaccadeExp7_font16,17711,No,28,exp,5,4,close,600,300,50,B,B,TRUE,568.761999999988,5f0e13040fa43b1294cad639,1920,1040,1
SaccadeExp7_font16,17711,No,29,exp,5,4,close,1800,650,400,P,P,TRUE,349.309999999998,5f0e13040fa43b1294cad639,1920,1040,1
SaccadeExp7_font16,17711,No,30,exp,5,2,close,1800,650,400,P,P,TRUE,314.468000004475,5f0e13040fa43b1294cad639,1920,1040,1
SaccadeExp7_font16,17711,No,31,exp,5,1,close,200,300,50,P,P,TRUE,410.77700000297,5f0e13040fa43b1294cad639,1920,1040,1
SaccadeExp7_font16,17711,No,32,exp,5,3,close,600,300,50,P,P,TRUE,308.925999999978,5f0e13040fa43b1294cad639,1920,1040,1
SaccadeExp7_font16,17711,No,33,exp,5,2,close,600,300,50,P,P,TRUE,308.023000002955,5f0e13040fa43b1294cad639,1920,1040,1
SaccadeExp7_font16,17711,No,34,exp,5,2,close,1400,650,400,R,R,TRUE,355.666000000027,5f0e13040fa43b1294cad639,1920,1040,1
SaccadeExp7_font16,17711,No,35,exp,5,2,close,1000,300,50,R,R,TRUE,304.81000000448,5f0e13040fa43b1294cad639,1920,1040,1
SaccadeExp7_font16,17711,No,36,exp,5,2,close,1000,650,400,R,R,TRUE,368.791000000027,5f0e13040fa43b1294cad639,1920,1040,1
SaccadeExp7_font16,17711,No,37,exp,5,4,close,1000,300,50,P,P,TRUE,396.148999999976,5f0e13040fa43b1294cad639,1920,1040,1
SaccadeExp7_font16,17711,No,38,exp,5,1,close,1000,650,400,P,P,TRUE,329.482999998494,5f0e13040fa43b1294cad639,1920,1040,1
SaccadeExp7_font16,17711,No,39,exp,5,1,close,1400,650,400,P,P,TRUE,312.252000001492,5f0e13040fa43b1294cad639,1920,1040,1
SaccadeExp7_font16,17711,No,40,exp,5,1,close,1800,300,50,R,R,TRUE,358.619000002975,5f0e13040fa43b1294cad639,1920,1040,1
SaccadeExp7_font16,17711,No,41,exp,5,2,close,1000,300,50,P,P,TRUE,354.931999999972,5f0e13040fa43b1294cad639,1920,1040,1
SaccadeExp7_font16,17711,No,42,exp,5,1,close,200,650,400,R,R,TRUE,513.292000001471,5f0e13040fa43b1294cad639,1920,1040,1
SaccadeExp7_font16,17711,No,43,exp,5,4,close,1000,300,50,B,B,TRUE,423.848000001512,5f0e13040fa43b1294cad639,1920,1040,1
SaccadeExp7_font16,17711,No,44,exp,5,3,close,1400,650,400,P,P,TRUE,386.912000001466,5f0e13040fa43b1294cad639,1920,1040,1
SaccadeExp7_font16,17711,No,45,exp,5,1,close,600,650,400,R,R,TRUE,351.732999998494,5f0e13040fa43b1294cad639,1920,1040,1
SaccadeExp7_font16,17711,No,46,exp,5,2,close,1400,650,400,P,P,TRUE,366.333000002953,5f0e13040fa43b1294cad639,1920,1040,1
SaccadeExp7_font16,17711,No,47,exp,5,3,close,1400,650,400,B,B,TRUE,458.917000000016,5f0e13040fa43b1294cad639,1920,1040,1
SaccadeExp7_font16,17711,No,48,exp,5,1,close,1800,650,400,B,B,TRUE,451.936999999976,5f0e13040fa43b1294cad639,1920,1040,1
SaccadeExp7_font16,17711,No,49,exp,5,2,close,1800,300,50,B,B,TRUE,395.770000002987,5f0e13040fa43b1294cad639,1920,1040,1
SaccadeExp7_font16,17711,No,50,exp,5,4,close,1000,650,400,B,B,TRUE,376.953999998514,5f0e13040fa43b1294cad639,1920,1040,1
SaccadeExp7_font16,17711,No,51,exp,5,2,close,1400,650,400,B,B,TRUE,437.951000004483,5f0e13040fa43b1294cad639,1920,1040,1
SaccadeExp7_font16,17711,No,52,exp,5,2,close,1800,300,50,P,P,TRUE,413.799000004481,5f0e13040fa43b1294cad639,1920,1040,1
SaccadeExp7_font16,17711,No,53,exp,5,1,close,1400,650,400,B,B,TRUE,505.47500000149,5f0e13040fa43b1294cad639,1920,1040,1
SaccadeExp7_font16,17711,No,54,exp,5,3,close,1400,650,400,R,R,TRUE,449.476000002993,5f0e13040fa43b1294cad639,1920,1040,1
SaccadeExp7_font16,17711,No,55,exp,5,4,close,1400,300,50,P,P,TRUE,328.709000001487,5f0e13040fa43b1294cad639,1920,1040,1
SaccadeExp7_font16,17711,No,56,exp,5,2,close,200,650,400,P,P,TRUE,297.264000002993,5f0e13040fa43b1294cad639,1920,1040,1
SaccadeExp7_font16,17711,No,57,exp,5,2,close,200,300,50,P,P,TRUE,328.649000004458,5f0e13040fa43b1294cad639,1920,1040,1
SaccadeExp7_font16,17711,No,58,exp,5,2,close,1800,650,400,R,R,TRUE,391.776000002981,5f0e13040fa43b1294cad639,1920,1040,1
SaccadeExp7_font16,17711,No,59,exp,5,1,close,1400,300,50,B,B,TRUE,433.92700000148,5f0e13040fa43b1294cad639,1920,1040,1
SaccadeExp7_font16,17711,No,60,exp,5,3,close,1000,300,50,R,R,TRUE,458.872999998508,5f0e13040fa43b1294cad639,1920,1040,1
SaccadeExp7_font16,17711,No,61,exp,5,4,close,1000,300,50,R,R,TRUE,433.539000002958,5f0e13040fa43b1294cad639,1920,1040,1
SaccadeExp7_font16,17711,No,62,exp,5,1,close,200,650,400,B,B,TRUE,396.694999998494,5f0e13040fa43b1294cad639,1920,1040,1
SaccadeExp7_font16,17711,No,63,exp,5,3,close,200,650,400,P,P,TRUE,282.546000001486,5f0e13040fa43b1294cad639,1920,1040,1
SaccadeExp7_font16,17711,No,64,exp,5,3,close,1400,300,50,B,B,TRUE,361.441000001505,5f0e13040fa43b1294cad639,1920,1040,1
SaccadeExp7_font16,17711,No,65,exp,5,3,close,1000,300,50,P,P,TRUE,293.767999999982,5f0e13040fa43b1294cad639,1920,1040,1
SaccadeExp7_font16,17711,No,66,exp,5,2,close,600,650,400,P,P,TRUE,359.274000003003,5f0e13040fa43b1294cad639,1920,1040,1
SaccadeExp7_font16,17711,No,67,exp,5,4,close,600,650,400,R,R,TRUE,373.53399999853,5f0e13040fa43b1294cad639,1920,1040,1
SaccadeExp7_font16,17711,No,68,exp,5,2,close,200,650,400,B,B,TRUE,387.837999998534,5f0e13040fa43b1294cad639,1920,1040,1
SaccadeExp7_font16,17711,No,69,exp,5,4,close,1400,650,400,B,B,TRUE,400.306999999972,5f0e13040fa43b1294cad639,1920,1040,1
SaccadeExp7_font16,17711,No,70,exp,5,4,close,1400,650,400,R,R,TRUE,444.040000001492,5f0e13040fa43b1294cad639,1920,1040,1
SaccadeExp7_font16,17711,No,71,exp,5,2,close,600,300,50,R,R,TRUE,389.637999999977,5f0e13040fa43b1294cad639,1920,1040,1
SaccadeExp7_font16,17711,No,72,exp,5,3,close,600,300,50,B,B,TRUE,401.539000002958,5f0e13040fa43b1294cad639,1920,1040,1
SaccadeExp7_font16,17711,No,73,exp,5,1,close,1000,300,50,B,B,TRUE,428.178000000014,5f0e13040fa43b1294cad639,1920,1040,1
SaccadeExp7_font16,17711,No,74,exp,5,3,close,1800,650,400,R,R,TRUE,406.40300000296,5f0e13040fa43b1294cad639,1920,1040,1
SaccadeExp7_font16,17711,No,75,exp,5,4,close,1800,300,50,R,R,TRUE,383.766999998537,5f0e13040fa43b1294cad639,1920,1040,1
SaccadeExp7_font16,17711,No,76,exp,5,4,close,200,300,50,R,R,TRUE,363.718999999983,5f0e13040fa43b1294cad639,1920,1040,1
SaccadeExp7_font16,17711,No,77,exp,5,3,close,1800,650,400,B,B,TRUE,617.344000001496,5f0e13040fa43b1294cad639,1920,1040,1
SaccadeExp7_font16,17711,No,78,exp,5,3,close,1400,300,50,R,R,TRUE,378.408999999985,5f0e13040fa43b1294cad639,1920,1040,1
SaccadeExp7_font16,17711,No,79,exp,5,4,close,600,300,50,R,R,TRUE,342.566999998526,5f0e13040fa43b1294cad639,1920,1040,1
SaccadeExp7_font16,17711,No,80,exp,5,3,close,1000,300,50,B,B,TRUE,643.63400000002,5f0e13040fa43b1294cad639,1920,1040,1
SaccadeExp7_font16,17711,No,81,exp,5,3,close,600,650,400,P,P,TRUE,391.222999998485,5f0e13040fa43b1294cad639,1920,1040,1
SaccadeExp7_font16,17711,No,82,exp,5,1,close,1400,300,50,P,P,TRUE,353.636999998533,5f0e13040fa43b1294cad639,1920,1040,1
SaccadeExp7_font16,17711,No,83,exp,5,1,close,1800,300,50,B,B,TRUE,557.599999998522,5f0e13040fa43b1294cad639,1920,1040,1
SaccadeExp7_font16,17711,No,84,exp,5,4,close,600,650,400,P,P,TRUE,371.395000004442,5f0e13040fa43b1294cad639,1920,1040,1
SaccadeExp7_font16,17711,No,85,exp,5,1,close,1400,300,50,R,R,TRUE,415.614000001515,5f0e13040fa43b1294cad639,1920,1040,1
SaccadeExp7_font16,17711,No,86,exp,5,3,close,200,300,50,B,B,TRUE,457.565999998536,5f0e13040fa43b1294cad639,1920,1040,1
SaccadeExp7_font16,17711,No,87,exp,5,3,close,1800,300,50,B,B,TRUE,417.328000001493,5f0e13040fa43b1294cad639,1920,1040,1
SaccadeExp7_font16,17711,No,88,exp,5,2,close,200,300,50,B,B,TRUE,347.673000004492,5f0e13040fa43b1294cad639,1920,1040,1
SaccadeExp7_font16,17711,No,89,exp,5,3,close,1000,650,400,R,R,TRUE,475.11099999852,5f0e13040fa43b1294cad639,1920,1040,1
SaccadeExp7_font16,17711,No,90,exp,5,3,close,1800,300,50,P,P,TRUE,369.534000001498,5f0e13040fa43b1294cad639,1920,1040,1
SaccadeExp7_font16,17711,No,91,exp,5,1,close,200,300,50,B,B,TRUE,366.063000004448,5f0e13040fa43b1294cad639,1920,1040,1
SaccadeExp7_font16,17711,No,92,exp,5,2,close,600,650,400,R,R,TRUE,428.038000001514,5f0e13040fa43b1294cad639,1920,1040,1
SaccadeExp7_font16,17711,No,93,exp,5,4,close,1800,650,400,R,R,TRUE,358.726000001479,5f0e13040fa43b1294cad639,1920,1040,1
SaccadeExp7_font16,17711,No,94,exp,5,3,close,200,650,400,B,B,TRUE,406.215000000026,5f0e13040fa43b1294cad639,1920,1040,1
SaccadeExp7_font16,17711,No,95,exp,5,2,close,1400,300,50,R,R,TRUE,303.756999999983,5f0e13040fa43b1294cad639,1920,1040,1
SaccadeExp7_font16,17711,No,96,exp,5,4,close,600,650,400,B,B,TRUE,672.833999998518,5f0e13040fa43b1294cad639,1920,1040,1
SaccadeExp7_font16,17711,No,97,exp,5,2,close,1400,300,50,P,P,TRUE,335.291000002995,5f0e13040fa43b1294cad639,1920,1040,1
SaccadeExp7_font16,17711,No,98,exp,5,4,close,1000,650,400,P,P,TRUE,382.778999998525,5f0e13040fa43b1294cad639,1920,1040,1
SaccadeExp7_font16,17711,No,99,exp,5,2,close,1800,300,50,R,R,TRUE,472.863000001467,5f0e13040fa43b1294cad639,1920,1040,1
SaccadeExp7_font16,17711,No,100,exp,5,1,close,200,650,400,P,P,TRUE,323.301000004518,5f0e13040fa43b1294cad639,1920,1040,1
SaccadeExp7_font16,17711,No,101,exp,5,3,close,200,300,50,R,R,TRUE,321.724000004469,5f0e13040fa43b1294cad639,1920,1040,1
SaccadeExp7_font16,17711,No,102,exp,5,4,close,200,650,400,B,B,TRUE,449.841000001528,5f0e13040fa43b1294cad639,1920,1040,1
SaccadeExp7_font16,17711,No,103,exp,5,1,close,200,300,50,R,R,TRUE,315.256000001449,5f0e13040fa43b1294cad639,1920,1040,1
SaccadeExp7_font16,17711,No,104,exp,5,1,close,1000,650,400,B,B,TRUE,410.1860000015,5f0e13040fa43b1294cad639,1920,1040,1
SaccadeExp7_font16,17711,No,105,exp,5,3,close,1400,300,50,P,P,TRUE,323.793000002974,5f0e13040fa43b1294cad639,1920,1040,1
SaccadeExp7_font16,17711,No,106,exp,5,1,close,600,650,400,B,B,TRUE,660.437999998452,5f0e13040fa43b1294cad639,1920,1040,1
SaccadeExp7_font16,17711,No,107,exp,5,2,close,200,650,400,R,R,TRUE,470.860000001499,5f0e13040fa43b1294cad639,1920,1040,1
SaccadeExp7_font16,17711,No,108,exp,5,3,close,1000,650,400,P,P,TRUE,304.176000001491,5f0e13040fa43b1294cad639,1920,1040,1
SaccadeExp7_font16,17711,No,109,exp,5,2,close,1000,650,400,P,P,TRUE,304.177000004449,5f0e13040fa43b1294cad639,1920,1040,1
SaccadeExp7_font16,17711,No,110,exp,5,4,close,1800,300,50,P,P,TRUE,316.915000002948,5f0e13040fa43b1294cad639,1920,1040,1
SaccadeExp7_font16,17711,No,111,exp,5,4,close,1400,300,50,R,R,TRUE,346.917000000016,5f0e13040fa43b1294cad639,1920,1040,1
SaccadeExp7_font16,17711,No,112,exp,5,2,close,1400,300,50,B,B,TRUE,583.633999998565,5f0e13040fa43b1294cad639,1920,1040,1
SaccadeExp7_font16,17711,No,113,exp,5,2,close,200,300,50,R,R,TRUE,379.54300000146,5f0e13040fa43b1294cad639,1920,1040,1
SaccadeExp7_font16,17711,No,114,exp,5,1,close,600,300,50,P,P,TRUE,295.774000001489,5f0e13040fa43b1294cad639,1920,1040,1
SaccadeExp7_font16,17711,No,115,exp,5,1,close,1800,650,400,P,P,TRUE,375.936000003014,5f0e13040fa43b1294cad639,1920,1040,1
SaccadeExp7_font16,17711,No,116,exp,5,1,close,600,300,50,B,B,TRUE,467.783000004478,5f0e13040fa43b1294cad639,1920,1040,1
SaccadeExp7_font16,17711,No,117,exp,5,1,close,1000,650,400,R,R,TRUE,381.022000004421,5f0e13040fa43b1294cad639,1920,1040,1
SaccadeExp7_font16,17711,No,118,exp,5,1,close,600,300,50,R,R,TRUE,409.873000004445,5f0e13040fa43b1294cad639,1920,1040,1
SaccadeExp7_font16,17711,No,119,exp,5,4,close,1000,650,400,R,R,TRUE,421.493000004441,5f0e13040fa43b1294cad639,1920,1040,1
SaccadeExp7_font16,17711,No,120,exp,5,3,close,600,300,50,R,R,TRUE,335.68200000294,5f0e13040fa43b1294cad639,1920,1040,1
SaccadeExp7_font16,17711,Central,1,exp,5,4,close,600,300,50,R,P,FALSE,1199.77800000005,5f0e13040fa43b1294cad639,1920,1040,1
SaccadeExp7_font16,17711,Central,2,exp,5,1,close,1000,650,400,R,P,FALSE,1994.81299999845,5f0e13040fa43b1294cad639,1920,1040,1
SaccadeExp7_font16,17711,Central,3,exp,5,2,close,200,650,400,P,P,TRUE,710.79299999855,5f0e13040fa43b1294cad639,1920,1040,1
SaccadeExp7_font16,17711,Central,4,exp,5,3,close,1000,300,50,B,B,TRUE,1317.20400000154,5f0e13040fa43b1294cad639,1920,1040,1
SaccadeExp7_font16,17711,Central,5,exp,5,2,close,1400,300,50,P,P,TRUE,1241.49399999855,5f0e13040fa43b1294cad639,1920,1040,1
SaccadeExp7_font16,17711,Central,6,exp,5,3,close,1000,650,400,B,P,FALSE,691.457000000053,5f0e13040fa43b1294cad639,1920,1040,1
SaccadeExp7_font16,17711,Central,7,exp,5,2,close,1800,300,50,R,R,TRUE,737.177000002936,5f0e13040fa43b1294cad639,1920,1040,1
SaccadeExp7_font16,17711,Central,8,exp,5,2,close,1400,650,400,P,R,FALSE,831.358000004431,5f0e13040fa43b1294cad639,1920,1040,1
SaccadeExp7_font16,17711,Central,9,exp,5,3,close,200,650,400,B,B,TRUE,971.033000001451,5f0e13040fa43b1294cad639,1920,1040,1
SaccadeExp7_font16,17711,Central,10,exp,5,4,close,1000,300,50,B,B,TRUE,718.630000000005,5f0e13040fa43b1294cad639,1920,1040,1
SaccadeExp7_font16,17711,Central,11,exp,5,2,close,1800,300,50,B,R,FALSE,555.113000002922,5f0e13040fa43b1294cad639,1920,1040,1
SaccadeExp7_font16,17711,Central,12,exp,5,1,close,1800,650,400,P,P,TRUE,928.163000002969,5f0e13040fa43b1294cad639,1920,1040,1
SaccadeExp7_font16,17711,Central,13,exp,5,4,close,200,650,400,B,B,TRUE,647.982000002987,5f0e13040fa43b1294cad639,1920,1040,1
SaccadeExp7_font16,17711,Central,14,exp,5,3,close,1400,650,400,R,P,FALSE,570.020000001532,5f0e13040fa43b1294cad639,1920,1040,1
SaccadeExp7_font16,17711,Central,15,exp,5,1,close,1000,650,400,B,B,TRUE,960.158000000054,5f0e13040fa43b1294cad639,1920,1040,1
SaccadeExp7_font16,17711,Central,16,exp,5,3,close,1800,300,50,B,B,TRUE,978.852000001469,5f0e13040fa43b1294cad639,1920,1040,1
SaccadeExp7_font16,17711,Central,17,exp,5,2,close,600,300,50,R,R,TRUE,678.591000002925,5f0e13040fa43b1294cad639,1920,1040,1
SaccadeExp7_font16,17711,Central,18,exp,5,2,close,1000,300,50,R,R,TRUE,373.84299999848,5f0e13040fa43b1294cad639,1920,1040,1
SaccadeExp7_font16,17711,Central,19,exp,5,1,close,600,650,400,P,P,TRUE,419.829000000027,5f0e13040fa43b1294cad639,1920,1040,1
SaccadeExp7_font16,17711,Central,20,exp,5,1,close,200,300,50,R,R,TRUE,686.233000001521,5f0e13040fa43b1294cad639,1920,1040,1
SaccadeExp7_font16,17711,Central,21,exp,5,1,close,200,300,50,B,B,TRUE,941.801999998512,5f0e13040fa43b1294cad639,1920,1040,1
SaccadeExp7_font16,17711,Central,22,exp,5,3,close,1800,300,50,P,P,TRUE,625.828999998514,5f0e13040fa43b1294cad639,1920,1040,1
SaccadeExp7_font16,17711,Central,23,exp,5,1,close,600,650,400,B,B,TRUE,693.513999999966,5f0e13040fa43b1294cad639,1920,1040,1
SaccadeExp7_font16,17711,Central,24,exp,5,3,close,1400,650,400,P,P,TRUE,453.778000001446,5f0e13040fa43b1294cad639,1920,1040,1
SaccadeExp7_font16,17711,Central,25,exp,5,4,close,600,650,400,R,R,TRUE,815.55700000294,5f0e13040fa43b1294cad639,1920,1040,1
SaccadeExp7_font16,17711,Central,26,exp,5,3,close,200,300,50,B,R,FALSE,1498.01800000295,5f0e13040fa43b1294cad639,1920,1040,1
SaccadeExp7_font16,17711,Central,27,exp,5,1,close,1000,300,50,P,P,TRUE,584.234999998473,5f0e13040fa43b1294cad639,1920,1040,1
SaccadeExp7_font16,17711,Central,28,exp,5,2,close,600,650,400,B,B,TRUE,284.98900000297,5f0e13040fa43b1294cad639,1920,1040,1
SaccadeExp7_font16,17711,Central,29,exp,5,3,close,1400,300,50,P,P,TRUE,476.05399999849,5f0e13040fa43b1294cad639,1920,1040,1
SaccadeExp7_font16,17711,Central,30,exp,5,4,close,1800,300,50,R,R,TRUE,578.91700000444,5f0e13040fa43b1294cad639,1920,1040,1
SaccadeExp7_font16,17711,Central,31,exp,5,4,close,1000,300,50,R,R,TRUE,1526.77399999998,5f0e13040fa43b1294cad639,1920,1040,1
SaccadeExp7_font16,17711,Central,32,exp,5,2,close,200,300,50,B,B,TRUE,1668.13099999854,5f0e13040fa43b1294cad639,1920,1040,1
SaccadeExp7_font16,17711,Central,33,exp,5,1,close,1400,650,400,B,B,TRUE,508.13900000148,5f0e13040fa43b1294cad639,1920,1040,1
SaccadeExp7_font16,17711,Central,34,exp,5,3,close,200,300,50,R,R,TRUE,1218.70700000448,5f0e13040fa43b1294cad639,1920,1040,1
SaccadeExp7_font16,17711,Central,35,exp,5,4,close,1800,300,50,B,B,TRUE,811.801999998512,5f0e13040fa43b1294cad639,1920,1040,1
SaccadeExp7_font16,17711,Central,36,exp,5,2,close,1000,650,400,R,R,TRUE,678.82500000298,5f0e13040fa43b1294cad639,1920,1040,1
SaccadeExp7_font16,17711,Central,37,exp,5,4,close,200,300,50,B,B,TRUE,839.190000004484,5f0e13040fa43b1294cad639,1920,1040,1
SaccadeExp7_font16,17711,Central,38,exp,5,2,close,1400,650,400,R,P,FALSE,1569.26100000145,5f0e13040fa43b1294cad639,1920,1040,1
SaccadeExp7_font16,17711,Central,39,exp,5,3,close,1800,650,400,P,P,TRUE,748.741000004462,5f0e13040fa43b1294cad639,1920,1040,1
SaccadeExp7_font16,17711,Central,40,exp,5,1,close,200,650,400,R,R,TRUE,492.126000001444,5f0e13040fa43b1294cad639,1920,1040,1
SaccadeExp7_font16,17711,Central,41,exp,5,1,close,1800,300,50,B,B,TRUE,657.873999999953,5f0e13040fa43b1294cad639,1920,1040,1
SaccadeExp7_font16,17711,Central,42,exp,5,1,close,1800,300,50,R,R,TRUE,673.492000002996,5f0e13040fa43b1294cad639,1920,1040,1
SaccadeExp7_font16,17711,Central,43,exp,5,1,close,1000,650,400,P,R,FALSE,834.563000001479,5f0e13040fa43b1294cad639,1920,1040,1
SaccadeExp7_font16,17711,Central,44,exp,5,2,close,1800,300,50,P,R,FALSE,1226.84299999848,5f0e13040fa43b1294cad639,1920,1040,1
SaccadeExp7_font16,17711,Central,45,exp,5,4,close,200,650,400,R,B,FALSE,1094.30600000301,5f0e13040fa43b1294cad639,1920,1040,1
SaccadeExp7_font16,17711,Central,46,exp,5,3,close,600,650,400,P,P,TRUE,358.988000001526,5f0e13040fa43b1294cad639,1920,1040,1
SaccadeExp7_font16,17711,Central,47,exp,5,4,close,1400,650,400,R,R,TRUE,1172.03700000443,5f0e13040fa43b1294cad639,1920,1040,1
SaccadeExp7_font16,17711,Central,48,exp,5,4,close,200,650,400,P,R,FALSE,737.573000004515,5f0e13040fa43b1294cad639,1920,1040,1
SaccadeExp7_font16,17711,Central,49,exp,5,1,close,1000,300,50,B,B,TRUE,830.743999998551,5f0e13040fa43b1294cad639,1920,1040,1
SaccadeExp7_font16,17711,Central,50,exp,5,2,close,600,650,400,R,P,FALSE,1481.91300000146,5f0e13040fa43b1294cad639,1920,1040,1
SaccadeExp7_font16,17711,Central,51,exp,5,2,close,1400,300,50,B,B,TRUE,536.482999998494,5f0e13040fa43b1294cad639,1920,1040,1
SaccadeExp7_font16,17711,Central,52,exp,5,2,close,200,300,50,R,R,TRUE,558.290999998455,5f0e13040fa43b1294cad639,1920,1040,1
SaccadeExp7_font16,17711,Central,53,exp,5,4,close,200,300,50,P,P,TRUE,547.567000000039,5f0e13040fa43b1294cad639,1920,1040,1
SaccadeExp7_font16,17711,Central,54,exp,5,1,close,1000,300,50,R,R,TRUE,422.800000001444,5f0e13040fa43b1294cad639,1920,1040,1
SaccadeExp7_font16,17711,Central,55,exp,5,1,close,600,300,50,B,B,TRUE,465.059000003035,5f0e13040fa43b1294cad639,1920,1040,1
SaccadeExp7_font16,17711,Central,56,exp,5,4,close,1000,650,400,R,R,TRUE,1194.54100000451,5f0e13040fa43b1294cad639,1920,1040,1
SaccadeExp7_font16,17711,Central,57,exp,5,2,close,1000,650,400,B,R,FALSE,646.834999999963,5f0e13040fa43b1294cad639,1920,1040,1
SaccadeExp7_font16,17711,Central,58,exp,5,3,close,1800,650,400,B,R,FALSE,600.435999998474,5f0e13040fa43b1294cad639,1920,1040,1
SaccadeExp7_font16,17711,Central,59,exp,5,3,close,600,650,400,R,B,FALSE,908.782999998541,5f0e13040fa43b1294cad639,1920,1040,1
SaccadeExp7_font16,17711,Central,60,exp,5,1,close,200,300,50,P,P,TRUE,451.419000004418,5f0e13040fa43b1294cad639,1920,1040,1
SaccadeExp7_font16,17711,Central,61,exp,5,4,close,1800,300,50,P,P,TRUE,495.569000002928,5f0e13040fa43b1294cad639,1920,1040,1
SaccadeExp7_font16,17711,Central,62,exp,5,4,close,1400,650,400,P,P,TRUE,344.01400000148,5f0e13040fa43b1294cad639,1920,1040,1
SaccadeExp7_font16,17711,Central,63,exp,5,1,close,1400,300,50,B,B,TRUE,485.096000001533,5f0e13040fa43b1294cad639,1920,1040,1
SaccadeExp7_font16,17711,Central,64,exp,5,3,close,1400,300,50,B,B,TRUE,1195.3629999999,5f0e13040fa43b1294cad639,1920,1040,1
SaccadeExp7_font16,17711,Central,65,exp,5,4,close,600,300,50,P,P,TRUE,406.553999998607,5f0e13040fa43b1294cad639,1920,1040,1
SaccadeExp7_font16,17711,Central,66,exp,5,1,close,600,300,50,P,P,TRUE,433.290000004461,5f0e13040fa43b1294cad639,1920,1040,1
SaccadeExp7_font16,17711,Central,67,exp,5,4,close,1000,650,400,P,P,TRUE,844.190999998478,5f0e13040fa43b1294cad639,1920,1040,1
SaccadeExp7_font16,17711,Central,68,exp,5,1,close,1400,650,400,R,R,TRUE,805.904000004521,5f0e13040fa43b1294cad639,1920,1040,1
SaccadeExp7_font16,17711,Central,69,exp,5,2,close,600,300,50,P,B,FALSE,496.068000002997,5f0e13040fa43b1294cad639,1920,1040,1
SaccadeExp7_font16,17711,Central,70,exp,5,2,close,200,650,400,B,B,TRUE,601.89300000458,5f0e13040fa43b1294cad639,1920,1040,1
SaccadeExp7_font16,17711,Central,71,exp,5,2,close,600,300,50,B,B,TRUE,540.785000002943,5f0e13040fa43b1294cad639,1920,1040,1
SaccadeExp7_font16,17711,Central,72,exp,5,4,close,1400,650,400,B,R,FALSE,754.244999998482,5f0e13040fa43b1294cad639,1920,1040,1
SaccadeExp7_font16,17711,Central,73,exp,5,1,close,600,650,400,R,R,TRUE,689.277000001399,5f0e13040fa43b1294cad639,1920,1040,1
SaccadeExp7_font16,17711,Central,74,exp,5,3,close,200,650,400,P,P,TRUE,514.560000001453,5f0e13040fa43b1294cad639,1920,1040,1
SaccadeExp7_font16,17711,Central,75,exp,5,4,close,600,650,400,B,B,TRUE,842.750000004424,5f0e13040fa43b1294cad639,1920,1040,1
SaccadeExp7_font16,17711,Central,76,exp,5,4,close,1400,300,50,B,B,TRUE,562.898000003072,5f0e13040fa43b1294cad639,1920,1040,1
SaccadeExp7_font16,17711,Central,77,exp,5,3,close,1800,650,400,R,R,TRUE,552.048000001581,5f0e13040fa43b1294cad639,1920,1040,1
SaccadeExp7_font16,17711,Central,78,exp,5,4,close,600,300,50,B,B,TRUE,540.945000004489,5f0e13040fa43b1294cad639,1920,1040,1
SaccadeExp7_font16,17711,Central,79,exp,5,1,close,200,650,400,P,P,TRUE,436.13600000157,5f0e13040fa43b1294cad639,1920,1040,1
SaccadeExp7_font16,17711,Central,80,exp,5,3,close,1000,650,400,R,R,TRUE,382.712999998592,5f0e13040fa43b1294cad639,1920,1040,1
SaccadeExp7_font16,17711,Central,81,exp,5,2,close,600,650,400,P,P,TRUE,508.438999998616,5f0e13040fa43b1294cad639,1920,1040,1
SaccadeExp7_font16,17711,Central,82,exp,5,4,close,1800,650,400,R,R,TRUE,835.823000001488,5f0e13040fa43b1294cad639,1920,1040,1
SaccadeExp7_font16,17711,Central,83,exp,5,4,close,1000,650,400,B,B,TRUE,1213.74100000155,5f0e13040fa43b1294cad639,1920,1040,1
SaccadeExp7_font16,17711,Central,84,exp,5,2,close,1400,650,400,B,B,TRUE,649.33600000455,5f0e13040fa43b1294cad639,1920,1040,1
SaccadeExp7_font16,17711,Central,85,exp,5,4,close,200,300,50,R,P,FALSE,361.900999998441,5f0e13040fa43b1294cad639,1920,1040,1
SaccadeExp7_font16,17711,Central,86,exp,5,2,close,200,650,400,R,R,TRUE,744.386999998474,5f0e13040fa43b1294cad639,1920,1040,1
SaccadeExp7_font16,17711,Central,87,exp,5,2,close,1800,650,400,B,R,FALSE,438.220999999903,5f0e13040fa43b1294cad639,1920,1040,1
SaccadeExp7_font16,17711,Central,88,exp,5,1,close,1800,300,50,P,R,FALSE,430.387999998406,5f0e13040fa43b1294cad639,1920,1040,1
SaccadeExp7_font16,17711,Central,89,exp,5,2,close,1000,650,400,P,R,FALSE,730.140000002924,5f0e13040fa43b1294cad639,1920,1040,1
SaccadeExp7_font16,17711,Central,90,exp,5,4,close,1800,650,400,P,P,TRUE,424.41800000309,5f0e13040fa43b1294cad639,1920,1040,1
SaccadeExp7_font16,17711,Central,91,exp,5,3,close,600,300,50,P,P,TRUE,434.532000004547,5f0e13040fa43b1294cad639,1920,1040,1
SaccadeExp7_font16,17711,Central,92,exp,5,2,close,1400,300,50,R,R,TRUE,491.810000001453,5f0e13040fa43b1294cad639,1920,1040,1
SaccadeExp7_font16,17711,Central,93,exp,5,1,close,1400,650,400,P,P,TRUE,659.791000004392,5f0e13040fa43b1294cad639,1920,1040,1
SaccadeExp7_font16,17711,Central,94,exp,5,3,close,600,300,50,B,B,TRUE,820.400999998441,5f0e13040fa43b1294cad639,1920,1040,1
SaccadeExp7_font16,17711,Central,95,exp,5,4,close,1800,650,400,B,B,TRUE,782.050000000047,5f0e13040fa43b1294cad639,1920,1040,1
SaccadeExp7_font16,17711,Central,96,exp,5,1,close,1800,650,400,R,R,TRUE,538.808999998495,5f0e13040fa43b1294cad639,1920,1040,1
SaccadeExp7_font16,17711,Central,97,exp,5,3,close,1000,300,50,P,P,TRUE,335.145000003045,5f0e13040fa43b1294cad639,1920,1040,1
SaccadeExp7_font16,17711,Central,98,exp,5,3,close,600,650,400,B,P,FALSE,766.169999999925,5f0e13040fa43b1294cad639,1920,1040,1
SaccadeExp7_font16,17711,Central,99,exp,5,3,close,200,300,50,P,P,TRUE,521.948000002885,5f0e13040fa43b1294cad639,1920,1040,1
SaccadeExp7_font16,17711,Central,100,exp,5,3,close,1000,300,50,R,R,TRUE,415.199999998556,5f0e13040fa43b1294cad639,1920,1040,1
SaccadeExp7_font16,17711,Central,101,exp,5,2,close,1000,300,50,P,P,TRUE,472.65300000296,5f0e13040fa43b1294cad639,1920,1040,1
SaccadeExp7_font16,17711,Central,102,exp,5,3,close,1400,650,400,B,R,FALSE,945.633000001544,5f0e13040fa43b1294cad639,1920,1040,1
SaccadeExp7_font16,17711,Central,103,exp,5,3,close,1800,300,50,R,B,FALSE,773.453000003006,5f0e13040fa43b1294cad639,1920,1040,1
SaccadeExp7_font16,17711,Central,104,exp,5,3,close,1000,650,400,P,P,TRUE,418.560000003083,5f0e13040fa43b1294cad639,1920,1040,1
SaccadeExp7_font16,17711,Central,105,exp,5,1,close,1800,650,400,B,B,TRUE,573.576000004541,5f0e13040fa43b1294cad639,1920,1040,1
SaccadeExp7_font16,17711,Central,106,exp,5,3,close,600,300,50,R,R,TRUE,977.765000002924,5f0e13040fa43b1294cad639,1920,1040,1
SaccadeExp7_font16,17711,Central,107,exp,5,2,close,1000,300,50,B,R,FALSE,628.614999998594,5f0e13040fa43b1294cad639,1920,1040,1
SaccadeExp7_font16,17711,Central,108,exp,5,2,close,1800,650,400,P,R,FALSE,646.917000002926,5f0e13040fa43b1294cad639,1920,1040,1
SaccadeExp7_font16,17711,Central,109,exp,5,1,close,1400,300,50,P,P,TRUE,695.082999998471,5f0e13040fa43b1294cad639,1920,1040,1
SaccadeExp7_font16,17711,Central,110,exp,5,4,close,1400,300,50,R,R,TRUE,502.074999998556,5f0e13040fa43b1294cad639,1920,1040,1
SaccadeExp7_font16,17711,Central,111,exp,5,1,close,200,650,400,B,B,TRUE,606.366999998456,5f0e13040fa43b1294cad639,1920,1040,1
SaccadeExp7_font16,17711,Central,112,exp,5,4,close,1400,300,50,P,P,TRUE,512.216999998549,5f0e13040fa43b1294cad639,1920,1040,1
SaccadeExp7_font16,17711,Central,113,exp,5,4,close,1000,300,50,P,P,TRUE,550.832000001566,5f0e13040fa43b1294cad639,1920,1040,1
SaccadeExp7_font16,17711,Central,114,exp,5,3,close,1400,300,50,R,R,TRUE,427.121000000043,5f0e13040fa43b1294cad639,1920,1040,1
SaccadeExp7_font16,17711,Central,115,exp,5,3,close,200,650,400,R,R,TRUE,582.694999998435,5f0e13040fa43b1294cad639,1920,1040,1
SaccadeExp7_font16,17711,Central,116,exp,5,4,close,600,650,400,P,P,TRUE,491.9140000029,5f0e13040fa43b1294cad639,1920,1040,1
SaccadeExp7_font16,17711,Central,117,exp,5,1,close,1400,300,50,R,R,TRUE,578.709000003058,5f0e13040fa43b1294cad639,1920,1040,1
SaccadeExp7_font16,17711,Central,118,exp,5,2,close,1800,650,400,R,R,TRUE,1079.22100000293,5f0e13040fa43b1294cad639,1920,1040,1
SaccadeExp7_font16,17711,Central,119,exp,5,1,close,600,300,50,R,R,TRUE,358.570000000065,5f0e13040fa43b1294cad639,1920,1040,1
SaccadeExp7_font16,17711,Central,120,exp,5,2,close,200,300,50,P,P,TRUE,787.633000001544,5f0e13040fa43b1294cad639,1920,1040,1
SaccadeExp7_font16,17711,Pro,1,exp,1,1,same,1400,300,50,P,P,TRUE,360.181000004523,5f0e13040fa43b1294cad639,1920,1040,1
SaccadeExp7_font16,17711,Pro,2,exp,3,3,same,1800,300,50,B,B,TRUE,435.595000004396,5f0e13040fa43b1294cad639,1920,1040,1
SaccadeExp7_font16,17711,Pro,3,exp,2,2,same,1400,300,50,P,P,TRUE,380.487000002991,5f0e13040fa43b1294cad639,1920,1040,1
SaccadeExp7_font16,17711,Pro,4,exp,4,4,same,1800,300,50,B,B,TRUE,391.340000001481,5f0e13040fa43b1294cad639,1920,1040,1
SaccadeExp7_font16,17711,Pro,5,exp,3,3,same,600,300,50,R,R,TRUE,466.429000004428,5f0e13040fa43b1294cad639,1920,1040,1
SaccadeExp7_font16,17711,Pro,6,exp,4,4,same,600,300,50,P,P,TRUE,346.676000004401,5f0e13040fa43b1294cad639,1920,1040,1
SaccadeExp7_font16,17711,Pro,7,exp,1,1,same,1400,650,400,R,R,TRUE,313.258000004571,5f0e13040fa43b1294cad639,1920,1040,1
SaccadeExp7_font16,17711,Pro,8,exp,1,1,same,1400,300,50,B,R,FALSE,1719.74500000151,5f0e13040fa43b1294cad639,1920,1040,1
SaccadeExp7_font16,17711,Pro,9,exp,4,4,same,200,650,400,R,R,TRUE,286.058999998495,5f0e13040fa43b1294cad639,1920,1040,1
SaccadeExp7_font16,17711,Pro,10,exp,1,1,same,200,300,50,R,R,TRUE,446.656000001589,5f0e13040fa43b1294cad639,1920,1040,1
SaccadeExp7_font16,17711,Pro,11,exp,2,2,same,200,300,50,B,B,TRUE,408.634000001475,5f0e13040fa43b1294cad639,1920,1040,1
SaccadeExp7_font16,17711,Pro,12,exp,3,3,same,1400,650,400,B,B,TRUE,499.996000000043,5f0e13040fa43b1294cad639,1920,1040,1
SaccadeExp7_font16,17711,Pro,13,exp,2,2,same,600,650,400,B,B,TRUE,653.017999998527,5f0e13040fa43b1294cad639,1920,1040,1
SaccadeExp7_font16,17711,Pro,14,exp,3,3,same,1000,300,50,R,R,TRUE,332.569000002928,5f0e13040fa43b1294cad639,1920,1040,1
SaccadeExp7_font16,17711,Pro,15,exp,2,2,same,1400,650,400,B,B,TRUE,442.819000002928,5f0e13040fa43b1294cad639,1920,1040,1
SaccadeExp7_font16,17711,Pro,16,exp,3,3,same,1400,650,400,R,R,TRUE,357.416999999899,5f0e13040fa43b1294cad639,1920,1040,1
SaccadeExp7_font16,17711,Pro,17,exp,4,4,same,600,650,400,P,P,TRUE,340.211000002921,5f0e13040fa43b1294cad639,1920,1040,1
SaccadeExp7_font16,17711,Pro,18,exp,4,4,same,1000,300,50,P,P,TRUE,880.752000000095,5f0e13040fa43b1294cad639,1920,1040,1
SaccadeExp7_font16,17711,Pro,19,exp,4,4,same,1800,300,50,P,P,TRUE,311.234999998473,5f0e13040fa43b1294cad639,1920,1040,1
SaccadeExp7_font16,17711,Pro,20,exp,3,3,same,200,650,400,B,B,TRUE,424.251999998465,5f0e13040fa43b1294cad639,1920,1040,1
SaccadeExp7_font16,17711,Pro,21,exp,3,3,same,1400,300,50,R,R,TRUE,385.712000001455,5f0e13040fa43b1294cad639,1920,1040,1
SaccadeExp7_font16,17711,Pro,22,exp,2,2,same,600,300,50,B,R,FALSE,2285.41500000004,5f0e13040fa43b1294cad639,1920,1040,1
SaccadeExp7_font16,17711,Pro,23,exp,1,1,same,1800,300,50,R,R,TRUE,281.129000001587,5f0e13040fa43b1294cad639,1920,1040,1
SaccadeExp7_font16,17711,Pro,24,exp,4,4,same,200,300,50,R,R,TRUE,425.463000003016,5f0e13040fa43b1294cad639,1920,1040,1
SaccadeExp7_font16,17711,Pro,25,exp,1,1,same,1800,650,400,R,R,TRUE,276.565000002971,5f0e13040fa43b1294cad639,1920,1040,1
SaccadeExp7_font16,17711,Pro,26,exp,1,1,same,200,300,50,B,R,FALSE,597.504999998491,5f0e13040fa43b1294cad639,1920,1040,1
SaccadeExp7_font16,17711,Pro,27,exp,1,1,same,600,650,400,R,R,TRUE,329.17099999846,5f0e13040fa43b1294cad639,1920,1040,1
SaccadeExp7_font16,17711,Pro,28,exp,2,2,same,600,650,400,P,P,TRUE,968.722000000067,5f0e13040fa43b1294cad639,1920,1040,1
SaccadeExp7_font16,17711,Pro,29,exp,1,1,same,200,650,400,P,P,TRUE,334.629000002984,5f0e13040fa43b1294cad639,1920,1040,1
SaccadeExp7_font16,17711,Pro,30,exp,3,3,same,1400,300,50,B,B,TRUE,443.235000001499,5f0e13040fa43b1294cad639,1920,1040,1
SaccadeExp7_font16,17711,Pro,31,exp,4,4,same,1000,300,50,R,R,TRUE,372.065000004368,5f0e13040fa43b1294cad639,1920,1040,1
SaccadeExp7_font16,17711,Pro,32,exp,3,3,same,1400,650,400,P,P,TRUE,305.967000001576,5f0e13040fa43b1294cad639,1920,1040,1
SaccadeExp7_font16,17711,Pro,33,exp,2,2,same,600,300,50,R,R,TRUE,384.652999998536,5f0e13040fa43b1294cad639,1920,1040,1
SaccadeExp7_font16,17711,Pro,34,exp,3,3,same,1000,300,50,P,P,TRUE,267.668999998597,5f0e13040fa43b1294cad639,1920,1040,1
SaccadeExp7_font16,17711,Pro,35,exp,1,1,same,600,650,400,B,B,TRUE,541.839000004577,5f0e13040fa43b1294cad639,1920,1040,1
SaccadeExp7_font16,17711,Pro,36,exp,4,4,same,1400,300,50,B,B,TRUE,577.782000002917,5f0e13040fa43b1294cad639,1920,1040,1
SaccadeExp7_font16,17711,Pro,37,exp,2,2,same,600,650,400,R,R,TRUE,375.611999998568,5f0e13040fa43b1294cad639,1920,1040,1
SaccadeExp7_font16,17711,Pro,38,exp,1,1,same,1400,650,400,P,P,TRUE,356.692999998573,5f0e13040fa43b1294cad639,1920,1040,1
SaccadeExp7_font16,17711,Pro,39,exp,3,3,same,600,650,400,P,P,TRUE,307.451000001514,5f0e13040fa43b1294cad639,1920,1040,1
SaccadeExp7_font16,17711,Pro,40,exp,1,1,same,1000,300,50,R,R,TRUE,289.927000001539,5f0e13040fa43b1294cad639,1920,1040,1
SaccadeExp7_font16,17711,Pro,41,exp,2,2,same,200,300,50,R,R,TRUE,321.854000001447,5f0e13040fa43b1294cad639,1920,1040,1
SaccadeExp7_font16,17711,Pro,42,exp,4,4,same,1000,650,400,R,R,TRUE,337.445000003092,5f0e13040fa43b1294cad639,1920,1040,1
SaccadeExp7_font16,17711,Pro,43,exp,2,2,same,200,300,50,P,R,FALSE,447.722000001464,5f0e13040fa43b1294cad639,1920,1040,1
SaccadeExp7_font16,17711,Pro,44,exp,4,4,same,1000,650,400,P,P,TRUE,314.6490000044,5f0e13040fa43b1294cad639,1920,1040,1
SaccadeExp7_font16,17711,Pro,45,exp,4,4,same,200,300,50,B,B,TRUE,440.831000004429,5f0e13040fa43b1294cad639,1920,1040,1
SaccadeExp7_font16,17711,Pro,46,exp,3,3,same,600,300,50,B,B,TRUE,418.667000001529,5f0e13040fa43b1294cad639,1920,1040,1
SaccadeExp7_font16,17711,Pro,47,exp,3,3,same,1800,650,400,R,R,TRUE,333.337000003085,5f0e13040fa43b1294cad639,1920,1040,1
SaccadeExp7_font16,17711,Pro,48,exp,2,2,same,200,650,400,B,B,TRUE,397.144000004511,5f0e13040fa43b1294cad639,1920,1040,1
SaccadeExp7_font16,17711,Pro,49,exp,4,4,same,200,650,400,P,P,TRUE,218.315999998478,5f0e13040fa43b1294cad639,1920,1040,1
SaccadeExp7_font16,17711,Pro,50,exp,2,2,same,1000,300,50,B,B,TRUE,396.838000003016,5f0e13040fa43b1294cad639,1920,1040,1
SaccadeExp7_font16,17711,Pro,51,exp,2,2,same,1400,300,50,R,R,TRUE,438.853000004543,5f0e13040fa43b1294cad639,1920,1040,1
SaccadeExp7_font16,17711,Pro,52,exp,1,1,same,200,650,400,R,R,TRUE,306.95700000436,5f0e13040fa43b1294cad639,1920,1040,1
SaccadeExp7_font16,17711,Pro,53,exp,2,2,same,1800,300,50,R,R,TRUE,288.469999999972,5f0e13040fa43b1294cad639,1920,1040,1
SaccadeExp7_font16,17711,Pro,54,exp,1,1,same,1000,650,400,R,R,TRUE,305.277999999933,5f0e13040fa43b1294cad639,1920,1040,1
SaccadeExp7_font16,17711,Pro,55,exp,3,3,same,1000,650,400,R,R,TRUE,305.324000004446,5f0e13040fa43b1294cad639,1920,1040,1
SaccadeExp7_font16,17711,Pro,56,exp,2,2,same,1800,650,400,R,R,TRUE,240.738000002922,5f0e13040fa43b1294cad639,1920,1040,1
SaccadeExp7_font16,17711,Pro,57,exp,3,3,same,1000,650,400,P,P,TRUE,227.609000002965,5f0e13040fa43b1294cad639,1920,1040,1
SaccadeExp7_font16,17711,Pro,58,exp,3,3,same,1800,300,50,R,R,TRUE,341.497999998508,5f0e13040fa43b1294cad639,1920,1040,1
SaccadeExp7_font16,17711,Pro,59,exp,4,4,same,1800,650,400,R,R,TRUE,323.110000000102,5f0e13040fa43b1294cad639,1920,1040,1
SaccadeExp7_font16,17711,Pro,60,exp,2,2,same,1400,650,400,P,P,TRUE,338.531000002986,5f0e13040fa43b1294cad639,1920,1040,1
SaccadeExp7_font16,17711,Pro,61,exp,1,1,same,1800,650,400,P,P,TRUE,313.966000003042,5f0e13040fa43b1294cad639,1920,1040,1
SaccadeExp7_font16,17711,Pro,62,exp,2,2,same,1800,650,400,P,P,TRUE,312.831000001403,5f0e13040fa43b1294cad639,1920,1040,1
SaccadeExp7_font16,17711,Pro,63,exp,2,2,same,1000,650,400,R,R,TRUE,281.811999998521,5f0e13040fa43b1294cad639,1920,1040,1
SaccadeExp7_font16,17711,Pro,64,exp,1,1,same,1000,650,400,B,B,TRUE,409.837999999989,5f0e13040fa43b1294cad639,1920,1040,1
SaccadeExp7_font16,17711,Pro,65,exp,4,4,same,600,300,50,R,R,TRUE,372.696999999927,5f0e13040fa43b1294cad639,1920,1040,1
SaccadeExp7_font16,17711,Pro,66,exp,3,3,same,200,300,50,R,R,TRUE,401.222999998601,5f0e13040fa43b1294cad639,1920,1040,1
SaccadeExp7_font16,17711,Pro,67,exp,4,4,same,1800,300,50,R,R,TRUE,267.03199999989,5f0e13040fa43b1294cad639,1920,1040,1
SaccadeExp7_font16,17711,Pro,68,exp,3,3,same,200,650,400,P,P,TRUE,237.279999998398,5f0e13040fa43b1294cad639,1920,1040,1
SaccadeExp7_font16,17711,Pro,69,exp,4,4,same,1400,650,400,B,B,TRUE,415.995000001509,5f0e13040fa43b1294cad639,1920,1040,1
SaccadeExp7_font16,17711,Pro,70,exp,2,2,same,200,650,400,P,P,TRUE,348.512000004528,5f0e13040fa43b1294cad639,1920,1040,1
SaccadeExp7_font16,17711,Pro,71,exp,2,2,same,1400,300,50,B,B,TRUE,488.880000001518,5f0e13040fa43b1294cad639,1920,1040,1
SaccadeExp7_font16,17711,Pro,72,exp,2,2,same,1800,300,50,P,P,TRUE,399.053000004496,5f0e13040fa43b1294cad639,1920,1040,1
SaccadeExp7_font16,17711,Pro,73,exp,4,4,same,1400,650,400,R,R,TRUE,330.460000004387,5f0e13040fa43b1294cad639,1920,1040,1
SaccadeExp7_font16,17711,Pro,74,exp,2,2,same,1000,300,50,P,P,TRUE,328.077000000048,5f0e13040fa43b1294cad639,1920,1040,1
SaccadeExp7_font16,17711,Pro,75,exp,1,1,same,200,300,50,P,P,TRUE,870.769000000088,5f0e13040fa43b1294cad639,1920,1040,1
SaccadeExp7_font16,17711,Pro,76,exp,3,3,same,1800,650,400,B,B,TRUE,431.101000001421,5f0e13040fa43b1294cad639,1920,1040,1
SaccadeExp7_font16,17711,Pro,77,exp,4,4,same,1000,300,50,B,B,TRUE,392.877000001492,5f0e13040fa43b1294cad639,1920,1040,1
SaccadeExp7_font16,17711,Pro,78,exp,4,4,same,200,300,50,P,P,TRUE,501.35799999861,5f0e13040fa43b1294cad639,1920,1040,1
SaccadeExp7_font16,17711,Pro,79,exp,3,3,same,600,650,400,B,B,TRUE,556.972999999998,5f0e13040fa43b1294cad639,1920,1040,1
SaccadeExp7_font16,17711,Pro,80,exp,3,3,same,1800,300,50,P,P,TRUE,288.919000003021,5f0e13040fa43b1294cad639,1920,1040,1
SaccadeExp7_font16,17711,Pro,81,exp,2,2,same,1000,650,400,P,P,TRUE,353.62800000445,5f0e13040fa43b1294cad639,1920,1040,1
SaccadeExp7_font16,17711,Pro,82,exp,2,2,same,1000,300,50,R,R,TRUE,525.979999998584,5f0e13040fa43b1294cad639,1920,1040,1
SaccadeExp7_font16,17711,Pro,83,exp,3,3,same,1000,300,50,B,B,TRUE,340.022000002908,5f0e13040fa43b1294cad639,1920,1040,1
SaccadeExp7_font16,17711,Pro,84,exp,1,1,same,600,650,400,P,P,TRUE,291.281000004383,5f0e13040fa43b1294cad639,1920,1040,1
SaccadeExp7_font16,17711,Pro,85,exp,4,4,same,1400,300,50,R,R,TRUE,305.919999999925,5f0e13040fa43b1294cad639,1920,1040,1
SaccadeExp7_font16,17711,Pro,86,exp,4,4,same,1400,650,400,P,P,TRUE,209.978000004543,5f0e13040fa43b1294cad639,1920,1040,1
SaccadeExp7_font16,17711,Pro,87,exp,4,4,same,600,300,50,B,B,TRUE,436.816000001505,5f0e13040fa43b1294cad639,1920,1040,1
SaccadeExp7_font16,17711,Pro,88,exp,3,3,same,200,300,50,B,B,TRUE,334.815000001574,5f0e13040fa43b1294cad639,1920,1040,1
SaccadeExp7_font16,17711,Pro,89,exp,2,2,same,600,300,50,P,P,TRUE,300.487000004388,5f0e13040fa43b1294cad639,1920,1040,1
SaccadeExp7_font16,17711,Pro,90,exp,1,1,same,600,300,50,B,B,TRUE,363.232000000076,5f0e13040fa43b1294cad639,1920,1040,1
SaccadeExp7_font16,17711,Pro,91,exp,3,3,same,200,650,400,R,R,TRUE,410.910000002943,5f0e13040fa43b1294cad639,1920,1040,1
SaccadeExp7_font16,17711,Pro,92,exp,3,3,same,1000,650,400,B,B,TRUE,390.865999999922,5f0e13040fa43b1294cad639,1920,1040,1
SaccadeExp7_font16,17711,Pro,93,exp,2,2,same,1400,650,400,R,R,TRUE,418.801000001375,5f0e13040fa43b1294cad639,1920,1040,1
SaccadeExp7_font16,17711,Pro,94,exp,1,1,same,1000,300,50,P,R,FALSE,1148.72400000296,5f0e13040fa43b1294cad639,1920,1040,1
SaccadeExp7_font16,17711,Pro,95,exp,3,3,same,1800,650,400,P,P,TRUE,233.787999999942,5f0e13040fa43b1294cad639,1920,1040,1
SaccadeExp7_font16,17711,Pro,96,exp,4,4,same,1000,650,400,B,B,TRUE,397.454000004567,5f0e13040fa43b1294cad639,1920,1040,1
SaccadeExp7_font16,17711,Pro,97,exp,1,1,same,600,300,50,R,R,TRUE,519.722000004491,5f0e13040fa43b1294cad639,1920,1040,1
SaccadeExp7_font16,17711,Pro,98,exp,4,4,same,1800,650,400,B,B,TRUE,381.673000004375,5f0e13040fa43b1294cad639,1920,1040,1
SaccadeExp7_font16,17711,Pro,99,exp,1,1,same,200,650,400,B,B,TRUE,298.350000000093,5f0e13040fa43b1294cad639,1920,1040,1
SaccadeExp7_font16,17711,Pro,100,exp,1,1,same,1400,650,400,B,B,TRUE,362.496000004467,5f0e13040fa43b1294cad639,1920,1040,1
SaccadeExp7_font16,17711,Pro,101,exp,1,1,same,1800,300,50,B,B,TRUE,502.467000001576,5f0e13040fa43b1294cad639,1920,1040,1
SaccadeExp7_font16,17711,Pro,102,exp,2,2,same,1800,300,50,B,B,TRUE,315.265999998432,5f0e13040fa43b1294cad639,1920,1040,1
SaccadeExp7_font16,17711,Pro,103,exp,1,1,same,1400,300,50,R,R,TRUE,329.193000004394,5f0e13040fa43b1294cad639,1920,1040,1
SaccadeExp7_font16,17711,Pro,104,exp,4,4,same,200,650,400,B,B,TRUE,330.011000004364,5f0e13040fa43b1294cad639,1920,1040,1
SaccadeExp7_font16,17711,Pro,105,exp,3,3,same,600,300,50,P,P,TRUE,295.932999998564,5f0e13040fa43b1294cad639,1920,1040,1
SaccadeExp7_font16,17711,Pro,106,exp,2,2,same,1000,650,400,B,B,TRUE,345.162000003038,5f0e13040fa43b1294cad639,1920,1040,1
SaccadeExp7_font16,17711,Pro,107,exp,1,1,same,600,300,50,P,P,TRUE,310.595000001602,5f0e13040fa43b1294cad639,1920,1040,1
SaccadeExp7_font16,17711,Pro,108,exp,3,3,same,600,650,400,R,R,TRUE,262.888000003062,5f0e13040fa43b1294cad639,1920,1040,1
SaccadeExp7_font16,17711,Pro,109,exp,3,3,same,1400,300,50,P,P,TRUE,246.982000001473,5f0e13040fa43b1294cad639,1920,1040,1
SaccadeExp7_font16,17711,Pro,110,exp,4,4,same,600,650,400,R,R,TRUE,282.71399999992,5f0e13040fa43b1294cad639,1920,1040,1
SaccadeExp7_font16,17711,Pro,111,exp,1,1,same,1800,300,50,P,P,TRUE,296.630999998422,5f0e13040fa43b1294cad639,1920,1040,1
SaccadeExp7_font16,17711,Pro,112,exp,2,2,same,200,650,400,R,R,TRUE,250.654000004521,5f0e13040fa43b1294cad639,1920,1040,1
SaccadeExp7_font16,17711,Pro,113,exp,1,1,same,1000,650,400,P,P,TRUE,221.06099999859,5f0e13040fa43b1294cad639,1920,1040,1
SaccadeExp7_font16,17711,Pro,114,exp,2,2,same,1800,650,400,B,B,TRUE,431.691000002902,5f0e13040fa43b1294cad639,1920,1040,1
SaccadeExp7_font16,17711,Pro,115,exp,4,4,same,1400,300,50,P,P,TRUE,232.830000000075,5f0e13040fa43b1294cad639,1920,1040,1
SaccadeExp7_font16,17711,Pro,116,exp,4,4,same,1800,650,400,P,P,TRUE,219.077000003075,5f0e13040fa43b1294cad639,1920,1040,1
SaccadeExp7_font16,17711,Pro,117,exp,4,4,same,600,650,400,B,B,TRUE,367.450999998488,5f0e13040fa43b1294cad639,1920,1040,1
SaccadeExp7_font16,17711,Pro,118,exp,1,1,same,1800,650,400,B,B,TRUE,364.108999998542,5f0e13040fa43b1294cad639,1920,1040,1
SaccadeExp7_font16,17711,Pro,119,exp,3,3,same,200,300,50,P,P,TRUE,505.273999998579,5f0e13040fa43b1294cad639,1920,1040,1
SaccadeExp7_font16,17711,Pro,120,exp,1,1,same,1000,300,50,B,P,FALSE,382.684999998426,5f0e13040fa43b1294cad639,1920,1040,1
SaccadeExp7_font16,17711,Anti,1,exp,4,3,opposite,600,300,50,P,P,TRUE,392.295000003185,5f0e13040fa43b1294cad639,1920,1040,1
SaccadeExp7_font16,17711,Anti,2,exp,2,1,opposite,1800,300,50,B,B,TRUE,690.700000004377,5f0e13040fa43b1294cad639,1920,1040,1
SaccadeExp7_font16,17711,Anti,3,exp,3,4,opposite,1000,300,50,R,R,TRUE,449.57100000279,5f0e13040fa43b1294cad639,1920,1040,1
SaccadeExp7_font16,17711,Anti,4,exp,3,4,opposite,200,300,50,B,B,TRUE,490.887000004295,5f0e13040fa43b1294cad639,1920,1040,1
SaccadeExp7_font16,17711,Anti,5,exp,1,2,opposite,600,300,50,R,R,TRUE,578.237000002991,5f0e13040fa43b1294cad639,1920,1040,1
SaccadeExp7_font16,17711,Anti,6,exp,1,2,opposite,1400,300,50,R,R,TRUE,389.857000003103,5f0e13040fa43b1294cad639,1920,1040,1
SaccadeExp7_font16,17711,Anti,7,exp,4,3,opposite,600,650,400,B,B,TRUE,402.64999999851,5f0e13040fa43b1294cad639,1920,1040,1
SaccadeExp7_font16,17711,Anti,8,exp,2,1,opposite,600,650,400,P,P,TRUE,319.298000004608,5f0e13040fa43b1294cad639,1920,1040,1
SaccadeExp7_font16,17711,Anti,9,exp,4,3,opposite,600,300,50,R,R,TRUE,477.645000000019,5f0e13040fa43b1294cad639,1920,1040,1
SaccadeExp7_font16,17711,Anti,10,exp,1,2,opposite,1800,650,400,B,B,TRUE,373.96400000155,5f0e13040fa43b1294cad639,1920,1040,1
SaccadeExp7_font16,17711,Anti,11,exp,2,1,opposite,1000,650,400,B,B,TRUE,323.690000001341,5f0e13040fa43b1294cad639,1920,1040,1
SaccadeExp7_font16,17711,Anti,12,exp,4,3,opposite,1800,650,400,R,R,TRUE,369.888000004459,5f0e13040fa43b1294cad639,1920,1040,1
SaccadeExp7_font16,17711,Anti,13,exp,3,4,opposite,200,300,50,R,R,TRUE,542.7610000032,5f0e13040fa43b1294cad639,1920,1040,1
SaccadeExp7_font16,17711,Anti,14,exp,4,3,opposite,600,300,50,B,B,TRUE,372.129000001587,5f0e13040fa43b1294cad639,1920,1040,1
SaccadeExp7_font16,17711,Anti,15,exp,3,4,opposite,600,650,400,B,B,TRUE,417.578000000212,5f0e13040fa43b1294cad639,1920,1040,1
SaccadeExp7_font16,17711,Anti,16,exp,2,1,opposite,1400,650,400,B,B,TRUE,445.623000004329,5f0e13040fa43b1294cad639,1920,1040,1
SaccadeExp7_font16,17711,Anti,17,exp,4,3,opposite,200,300,50,R,R,TRUE,1606.86500000022,5f0e13040fa43b1294cad639,1920,1040,1
SaccadeExp7_font16,17711,Anti,18,exp,1,2,opposite,600,300,50,B,B,TRUE,1328.51399999857,5f0e13040fa43b1294cad639,1920,1040,1
SaccadeExp7_font16,17711,Anti,19,exp,2,1,opposite,1000,650,400,R,R,TRUE,375.026999999769,5f0e13040fa43b1294cad639,1920,1040,1
SaccadeExp7_font16,17711,Anti,20,exp,3,4,opposite,1000,650,400,R,R,TRUE,372.628000000026,5f0e13040fa43b1294cad639,1920,1040,1
SaccadeExp7_font16,17711,Anti,21,exp,2,1,opposite,1800,650,400,B,B,TRUE,929.302000001539,5f0e13040fa43b1294cad639,1920,1040,1
SaccadeExp7_font16,17711,Anti,22,exp,3,4,opposite,1000,300,50,B,B,TRUE,358.762000004295,5f0e13040fa43b1294cad639,1920,1040,1
SaccadeExp7_font16,17711,Anti,23,exp,3,4,opposite,200,650,400,P,P,TRUE,389.570999999996,5f0e13040fa43b1294cad639,1920,1040,1
SaccadeExp7_font16,17711,Anti,24,exp,4,3,opposite,1800,300,50,R,R,TRUE,1151.69399999874,5f0e13040fa43b1294cad639,1920,1040,1
SaccadeExp7_font16,17711,Anti,25,exp,3,4,opposite,200,300,50,P,P,TRUE,445.042000001296,5f0e13040fa43b1294cad639,1920,1040,1
SaccadeExp7_font16,17711,Anti,26,exp,4,3,opposite,1800,650,400,B,B,TRUE,342.177999998443,5f0e13040fa43b1294cad639,1920,1040,1
SaccadeExp7_font16,17711,Anti,27,exp,4,3,opposite,200,650,400,P,P,TRUE,342.747000002768,5f0e13040fa43b1294cad639,1920,1040,1
SaccadeExp7_font16,17711,Anti,28,exp,2,1,opposite,200,650,400,R,R,TRUE,390.274000003003,5f0e13040fa43b1294cad639,1920,1040,1
SaccadeExp7_font16,17711,Anti,29,exp,2,1,opposite,200,650,400,B,B,TRUE,387.25700000301,5f0e13040fa43b1294cad639,1920,1040,1
SaccadeExp7_font16,17711,Anti,30,exp,3,4,opposite,1400,650,400,P,P,TRUE,399.496000004467,5f0e13040fa43b1294cad639,1920,1040,1
SaccadeExp7_font16,17711,Anti,31,exp,4,3,opposite,600,650,400,R,R,TRUE,347.991000004578,5f0e13040fa43b1294cad639,1920,1040,1
SaccadeExp7_font16,17711,Anti,32,exp,3,4,opposite,600,300,50,R,R,TRUE,345.866000001319,5f0e13040fa43b1294cad639,1920,1040,1
SaccadeExp7_font16,17711,Anti,33,exp,4,3,opposite,1400,650,400,R,R,TRUE,408.123999998439,5f0e13040fa43b1294cad639,1920,1040,1
SaccadeExp7_font16,17711,Anti,34,exp,3,4,opposite,1000,650,400,B,B,TRUE,357.1539999987,5f0e13040fa43b1294cad639,1920,1040,1
SaccadeExp7_font16,17711,Anti,35,exp,1,2,opposite,600,300,50,P,R,FALSE,1281.40100000147,5f0e13040fa43b1294cad639,1920,1040,1
SaccadeExp7_font16,17711,Anti,36,exp,4,3,opposite,200,300,50,P,P,TRUE,809.221000003163,5f0e13040fa43b1294cad639,1920,1040,1
SaccadeExp7_font16,17711,Anti,37,exp,4,3,opposite,200,650,400,B,B,TRUE,406.226000003051,5f0e13040fa43b1294cad639,1920,1040,1
SaccadeExp7_font16,17711,Anti,38,exp,1,2,opposite,1000,650,400,R,R,TRUE,321.319000004325,5f0e13040fa43b1294cad639,1920,1040,1
SaccadeExp7_font16,17711,Anti,39,exp,1,2,opposite,1800,650,400,P,P,TRUE,368.594000001438,5f0e13040fa43b1294cad639,1920,1040,1
SaccadeExp7_font16,17711,Anti,40,exp,3,4,opposite,200,650,400,B,B,TRUE,319.089999998454,5f0e13040fa43b1294cad639,1920,1040,1
SaccadeExp7_font16,17711,Anti,41,exp,1,2,opposite,1400,650,400,B,B,TRUE,365.523000000045,5f0e13040fa43b1294cad639,1920,1040,1
SaccadeExp7_font16,17711,Anti,42,exp,2,1,opposite,1000,650,400,P,P,TRUE,346.655000001658,5f0e13040fa43b1294cad639,1920,1040,1
SaccadeExp7_font16,17711,Anti,43,exp,4,3,opposite,1400,300,50,B,B,TRUE,311.224999998696,5f0e13040fa43b1294cad639,1920,1040,1
SaccadeExp7_font16,17711,Anti,44,exp,3,4,opposite,1400,300,50,P,P,TRUE,326.193000002764,5f0e13040fa43b1294cad639,1920,1040,1
SaccadeExp7_font16,17711,Anti,45,exp,1,2,opposite,1000,300,50,P,P,TRUE,291.23600000469,5f0e13040fa43b1294cad639,1920,1040,1
SaccadeExp7_font16,17711,Anti,46,exp,4,3,opposite,1400,300,50,P,P,TRUE,305.951999998651,5f0e13040fa43b1294cad639,1920,1040,1
SaccadeExp7_font16,17711,Anti,47,exp,2,1,opposite,600,300,50,P,P,TRUE,305.123000001535,5f0e13040fa43b1294cad639,1920,1040,1
SaccadeExp7_font16,17711,Anti,48,exp,4,3,opposite,600,650,400,P,P,TRUE,289.754000001587,5f0e13040fa43b1294cad639,1920,1040,1
SaccadeExp7_font16,17711,Anti,49,exp,3,4,opposite,1000,650,400,P,P,TRUE,259.22899999842,5f0e13040fa43b1294cad639,1920,1040,1
SaccadeExp7_font16,17711,Anti,50,exp,1,2,opposite,1400,650,400,P,P,TRUE,245.023999998346,5f0e13040fa43b1294cad639,1920,1040,1
SaccadeExp7_font16,17711,Anti,51,exp,4,3,opposite,1800,300,50,P,P,TRUE,261.16100000171,5f0e13040fa43b1294cad639,1920,1040,1
SaccadeExp7_font16,17711,Anti,52,exp,4,3,opposite,1000,300,50,R,P,FALSE,645.718999998644,5f0e13040fa43b1294cad639,1920,1040,1
SaccadeExp7_font16,17711,Anti,53,exp,2,1,opposite,600,650,400,B,B,TRUE,360.749000001699,5f0e13040fa43b1294cad639,1920,1040,1
SaccadeExp7_font16,17711,Anti,54,exp,2,1,opposite,1400,650,400,P,P,TRUE,326.72800000431,5f0e13040fa43b1294cad639,1920,1040,1
SaccadeExp7_font16,17711,Anti,55,exp,3,4,opposite,1800,300,50,R,R,TRUE,451.602000001352,5f0e13040fa43b1294cad639,1920,1040,1
SaccadeExp7_font16,17711,Anti,56,exp,2,1,opposite,1000,300,50,P,P,TRUE,603.923999998719,5f0e13040fa43b1294cad639,1920,1040,1
SaccadeExp7_font16,17711,Anti,57,exp,4,3,opposite,1000,650,400,P,P,TRUE,303.633000004571,5f0e13040fa43b1294cad639,1920,1040,1
SaccadeExp7_font16,17711,Anti,58,exp,2,1,opposite,200,650,400,P,P,TRUE,241.02100000158,5f0e13040fa43b1294cad639,1920,1040,1
SaccadeExp7_font16,17711,Anti,59,exp,2,1,opposite,200,300,50,B,B,TRUE,2435.68300000299,5f0e13040fa43b1294cad639,1920,1040,1
SaccadeExp7_font16,17711,Anti,60,exp,2,1,opposite,1400,300,50,B,B,TRUE,473.774000001606,5f0e13040fa43b1294cad639,1920,1040,1
SaccadeExp7_font16,17711,Anti,61,exp,1,2,opposite,200,300,50,R,R,TRUE,551.530000004452,5f0e13040fa43b1294cad639,1920,1040,1
SaccadeExp7_font16,17711,Anti,62,exp,1,2,opposite,200,650,400,B,B,TRUE,366.274999999907,5f0e13040fa43b1294cad639,1920,1040,1
SaccadeExp7_font16,17711,Anti,63,exp,1,2,opposite,1400,300,50,B,B,TRUE,281.645000002813,5f0e13040fa43b1294cad639,1920,1040,1
SaccadeExp7_font16,17711,Anti,64,exp,2,1,opposite,1400,300,50,P,P,TRUE,296.264000001363,5f0e13040fa43b1294cad639,1920,1040,1
SaccadeExp7_font16,17711,Anti,65,exp,3,4,opposite,1800,650,400,R,R,TRUE,280.155999999959,5f0e13040fa43b1294cad639,1920,1040,1
SaccadeExp7_font16,17711,Anti,66,exp,4,3,opposite,1800,650,400,P,P,TRUE,249.495000000112,5f0e13040fa43b1294cad639,1920,1040,1
SaccadeExp7_font16,17711,Anti,67,exp,3,4,opposite,600,300,50,B,R,FALSE,969.973999999929,5f0e13040fa43b1294cad639,1920,1040,1
SaccadeExp7_font16,17711,Anti,68,exp,1,2,opposite,600,650,400,R,R,TRUE,303.225999999791,5f0e13040fa43b1294cad639,1920,1040,1
SaccadeExp7_font16,17711,Anti,69,exp,1,2,opposite,200,650,400,R,R,TRUE,208.470000001602,5f0e13040fa43b1294cad639,1920,1040,1
SaccadeExp7_font16,17711,Anti,70,exp,2,1,opposite,1000,300,50,B,P,FALSE,866.711000004318,5f0e13040fa43b1294cad639,1920,1040,1
SaccadeExp7_font16,17711,Anti,71,exp,2,1,opposite,1800,650,400,P,P,TRUE,394.945000001695,5f0e13040fa43b1294cad639,1920,1040,1
SaccadeExp7_font16,17711,Anti,72,exp,2,1,opposite,1800,300,50,P,P,TRUE,373.628000001423,5f0e13040fa43b1294cad639,1920,1040,1
SaccadeExp7_font16,17711,Anti,73,exp,3,4,opposite,600,650,400,R,R,TRUE,243.915000000037,5f0e13040fa43b1294cad639,1920,1040,1
SaccadeExp7_font16,17711,Anti,74,exp,1,2,opposite,1000,300,50,R,R,TRUE,900.55000000447,5f0e13040fa43b1294cad639,1920,1040,1
SaccadeExp7_font16,17711,Anti,75,exp,4,3,opposite,1000,650,400,B,B,TRUE,332.082000004593,5f0e13040fa43b1294cad639,1920,1040,1
SaccadeExp7_font16,17711,Anti,76,exp,1,2,opposite,1400,650,400,R,R,TRUE,346.632000004407,5f0e13040fa43b1294cad639,1920,1040,1
SaccadeExp7_font16,17711,Anti,77,exp,1,2,opposite,1400,300,50,P,P,TRUE,615.5960000013,5f0e13040fa43b1294cad639,1920,1040,1
SaccadeExp7_font16,17711,Anti,78,exp,2,1,opposite,600,650,400,R,R,TRUE,314.969000000041,5f0e13040fa43b1294cad639,1920,1040,1
SaccadeExp7_font16,17711,Anti,79,exp,3,4,opposite,1000,300,50,P,P,TRUE,296.858000002801,5f0e13040fa43b1294cad639,1920,1040,1
SaccadeExp7_font16,17711,Anti,80,exp,3,4,opposite,1400,300,50,R,R,TRUE,359.978999999817,5f0e13040fa43b1294cad639,1920,1040,1
SaccadeExp7_font16,17711,Anti,81,exp,1,2,opposite,200,300,50,B,B,TRUE,357.066000004299,5f0e13040fa43b1294cad639,1920,1040,1
SaccadeExp7_font16,17711,Anti,82,exp,2,1,opposite,1400,650,400,R,R,TRUE,306.798000004608,5f0e13040fa43b1294cad639,1920,1040,1
SaccadeExp7_font16,17711,Anti,83,exp,1,2,opposite,1800,300,50,R,R,TRUE,560.594000000041,5f0e13040fa43b1294cad639,1920,1040,1
SaccadeExp7_font16,17711,Anti,84,exp,4,3,opposite,1000,300,50,P,R,FALSE,756.979000004474,5f0e13040fa43b1294cad639,1920,1040,1
SaccadeExp7_font16,17711,Anti,85,exp,1,2,opposite,1000,300,50,B,R,FALSE,481.131000001449,5f0e13040fa43b1294cad639,1920,1040,1
SaccadeExp7_font16,17711,Anti,86,exp,3,4,opposite,1800,650,400,B,B,TRUE,361.572000004351,5f0e13040fa43b1294cad639,1920,1040,1
SaccadeExp7_font16,17711,Anti,87,exp,1,2,opposite,200,650,400,P,P,TRUE,200.707999998704,5f0e13040fa43b1294cad639,1920,1040,1
SaccadeExp7_font16,17711,Anti,88,exp,4,3,opposite,1000,650,400,R,R,TRUE,508.732000003103,5f0e13040fa43b1294cad639,1920,1040,1
SaccadeExp7_font16,17711,Anti,89,exp,2,1,opposite,1800,650,400,R,R,TRUE,260.1539999987,5f0e13040fa43b1294cad639,1920,1040,1
SaccadeExp7_font16,17711,Anti,90,exp,1,2,opposite,600,650,400,P,P,TRUE,278.856000004336,5f0e13040fa43b1294cad639,1920,1040,1
SaccadeExp7_font16,17711,Anti,91,exp,3,4,opposite,1800,650,400,P,P,TRUE,360.257999999914,5f0e13040fa43b1294cad639,1920,1040,1
SaccadeExp7_font16,17711,Anti,92,exp,2,1,opposite,1400,300,50,R,R,TRUE,499.895000000019,5f0e13040fa43b1294cad639,1920,1040,1
SaccadeExp7_font16,17711,Anti,93,exp,3,4,opposite,1400,650,400,B,B,TRUE,379.183000001591,5f0e13040fa43b1294cad639,1920,1040,1
SaccadeExp7_font16,17711,Anti,94,exp,1,2,opposite,1800,650,400,R,R,TRUE,232.3460000013,5f0e13040fa43b1294cad639,1920,1040,1
SaccadeExp7_font16,17711,Anti,95,exp,3,4,opposite,200,650,400,R,R,TRUE,363.91499999864,5f0e13040fa43b1294cad639,1920,1040,1
SaccadeExp7_font16,17711,Anti,96,exp,1,2,opposite,200,300,50,P,P,TRUE,345.345999999903,5f0e13040fa43b1294cad639,1920,1040,1
SaccadeExp7_font16,17711,Anti,97,exp,2,1,opposite,600,300,50,B,B,TRUE,1478.6370000029,5f0e13040fa43b1294cad639,1920,1040,1
SaccadeExp7_font16,17711,Anti,98,exp,1,2,opposite,1800,300,50,B,B,TRUE,388.829000001308,5f0e13040fa43b1294cad639,1920,1040,1
SaccadeExp7_font16,17711,Anti,99,exp,4,3,opposite,1800,300,50,B,R,FALSE,655.339000002947,5f0e13040fa43b1294cad639,1920,1040,1
SaccadeExp7_font16,17711,Anti,100,exp,4,3,opposite,200,300,50,B,B,TRUE,656.217000001576,5f0e13040fa43b1294cad639,1920,1040,1
SaccadeExp7_font16,17711,Anti,101,exp,4,3,opposite,1400,300,50,R,R,TRUE,479.484000002965,5f0e13040fa43b1294cad639,1920,1040,1
SaccadeExp7_font16,17711,Anti,102,exp,4,3,opposite,200,650,400,R,R,TRUE,282.219000000041,5f0e13040fa43b1294cad639,1920,1040,1
SaccadeExp7_font16,17711,Anti,103,exp,3,4,opposite,600,300,50,P,P,TRUE,1241.79699999839,5f0e13040fa43b1294cad639,1920,1040,1
SaccadeExp7_font16,17711,Anti,104,exp,1,2,opposite,1800,300,50,P,P,TRUE,272.971000003163,5f0e13040fa43b1294cad639,1920,1040,1
SaccadeExp7_font16,17711,Anti,105,exp,2,1,opposite,200,300,50,P,R,FALSE,530.62900000019,5f0e13040fa43b1294cad639,1920,1040,1
SaccadeExp7_font16,17711,Anti,106,exp,3,4,opposite,1800,300,50,P,P,TRUE,311.215000004508,5f0e13040fa43b1294cad639,1920,1040,1
SaccadeExp7_font16,17711,Anti,107,exp,1,2,opposite,1000,650,400,P,P,TRUE,294.815000003204,5f0e13040fa43b1294cad639,1920,1040,1
SaccadeExp7_font16,17711,Anti,108,exp,1,2,opposite,1000,650,400,B,B,TRUE,472.137999999803,5f0e13040fa43b1294cad639,1920,1040,1
SaccadeExp7_font16,17711,Anti,109,exp,2,1,opposite,600,300,50,R,R,TRUE,496.146999999881,5f0e13040fa43b1294cad639,1920,1040,1
SaccadeExp7_font16,17711,Anti,110,exp,2,1,opposite,1800,300,50,R,R,TRUE,310.808000004385,5f0e13040fa43b1294cad639,1920,1040,1
SaccadeExp7_font16,17711,Anti,111,exp,3,4,opposite,1800,300,50,B,B,TRUE,836.208000000101,5f0e13040fa43b1294cad639,1920,1040,1
SaccadeExp7_font16,17711,Anti,112,exp,4,3,opposite,1400,650,400,B,B,TRUE,397.945999999996,5f0e13040fa43b1294cad639,1920,1040,1
SaccadeExp7_font16,17711,Anti,113,exp,2,1,opposite,200,300,50,R,R,TRUE,458.649999999907,5f0e13040fa43b1294cad639,1920,1040,1
SaccadeExp7_font16,17711,Anti,114,exp,3,4,opposite,1400,650,400,R,R,TRUE,243.56400000304,5f0e13040fa43b1294cad639,1920,1040,1
SaccadeExp7_font16,17711,Anti,115,exp,3,4,opposite,600,650,400,P,P,TRUE,359.402000004426,5f0e13040fa43b1294cad639,1920,1040,1
SaccadeExp7_font16,17711,Anti,116,exp,3,4,opposite,1400,300,50,B,R,FALSE,1363.42000000132,5f0e13040fa43b1294cad639,1920,1040,1
SaccadeExp7_font16,17711,Anti,117,exp,4,3,opposite,1400,650,400,P,P,TRUE,215.636000001337,5f0e13040fa43b1294cad639,1920,1040,1
SaccadeExp7_font16,17711,Anti,118,exp,1,2,opposite,600,650,400,B,B,TRUE,412.03599999845,5f0e13040fa43b1294cad639,1920,1040,1
SaccadeExp7_font16,17711,Anti,119,exp,2,1,opposite,1000,300,50,R,R,TRUE,358.370999998413,5f0e13040fa43b1294cad639,1920,1040,1
SaccadeExp7_font16,17711,Anti,120,exp,4,3,opposite,1000,300,50,B,R,FALSE,595.324000002816,5f0e13040fa43b1294cad639,1920,1040,1
SaccadeExp7_font16,17711,Random,1,exp,4,2,close,1000,650,400,P,P,TRUE,595.190000004601,5f0e13040fa43b1294cad639,1920,1040,1
SaccadeExp7_font16,17711,Random,2,exp,1,3,close,1000,650,400,R,R,TRUE,584.18900000304,5f0e13040fa43b1294cad639,1920,1040,1
SaccadeExp7_font16,17711,Random,3,exp,3,4,opposite,1000,650,400,P,P,TRUE,332.939000004437,5f0e13040fa43b1294cad639,1920,1040,1
SaccadeExp7_font16,17711,Random,4,exp,3,2,close,600,300,50,P,R,FALSE,585.885000003036,5f0e13040fa43b1294cad639,1920,1040,1
SaccadeExp7_font16,17711,Random,5,exp,2,3,close,600,650,400,P,P,TRUE,543.040000004694,5f0e13040fa43b1294cad639,1920,1040,1
SaccadeExp7_font16,17711,Random,6,exp,4,1,close,200,650,400,R,R,TRUE,438.171000001486,5f0e13040fa43b1294cad639,1920,1040,1
SaccadeExp7_font16,17711,Random,7,exp,4,3,opposite,1800,650,400,P,P,TRUE,304.510999998543,5f0e13040fa43b1294cad639,1920,1040,1
SaccadeExp7_font16,17711,Random,8,exp,3,4,opposite,1400,650,400,P,P,TRUE,256.243999998551,5f0e13040fa43b1294cad639,1920,1040,1
SaccadeExp7_font16,17711,Random,9,exp,4,1,close,1000,300,50,P,P,TRUE,1152.98699999833,5f0e13040fa43b1294cad639,1920,1040,1
SaccadeExp7_font16,17711,Random,10,exp,4,1,close,1800,650,400,P,R,FALSE,685.485999998637,5f0e13040fa43b1294cad639,1920,1040,1
SaccadeExp7_font16,17711,Random,11,exp,3,1,close,1800,300,50,B,B,TRUE,444.015999998432,5f0e13040fa43b1294cad639,1920,1040,1
SaccadeExp7_font16,17711,Random,12,exp,2,4,close,200,300,50,P,P,TRUE,373.306000003126,5f0e13040fa43b1294cad639,1920,1040,1
SaccadeExp7_font16,17711,Random,13,exp,1,3,close,1000,300,50,B,R,FALSE,624.785000001546,5f0e13040fa43b1294cad639,1920,1040,1
SaccadeExp7_font16,17711,Random,14,exp,3,1,close,1400,300,50,B,R,FALSE,1154.49399999855,5f0e13040fa43b1294cad639,1920,1040,1
SaccadeExp7_font16,17711,Random,15,exp,3,1,close,200,300,50,R,P,FALSE,575.267000002787,5f0e13040fa43b1294cad639,1920,1040,1
SaccadeExp7_font16,17711,Random,16,exp,2,4,close,1800,650,400,R,R,TRUE,659.537000000011,5f0e13040fa43b1294cad639,1920,1040,1
SaccadeExp7_font16,17711,Random,17,exp,3,1,close,1800,650,400,B,R,FALSE,692.39700000314,5f0e13040fa43b1294cad639,1920,1040,1
SaccadeExp7_font16,17711,Random,18,exp,1,2,opposite,1400,650,400,R,B,FALSE,964.602999998722,5f0e13040fa43b1294cad639,1920,1040,1
SaccadeExp7_font16,17711,Random,19,exp,4,1,close,200,300,50,B,B,TRUE,1033.84299999848,5f0e13040fa43b1294cad639,1920,1040,1
SaccadeExp7_font16,17711,Random,20,exp,4,3,opposite,1400,650,400,P,P,TRUE,362.804000001401,5f0e13040fa43b1294cad639,1920,1040,1
SaccadeExp7_font16,17711,Random,21,exp,4,2,close,600,300,50,R,R,TRUE,408.089000000153,5f0e13040fa43b1294cad639,1920,1040,1
SaccadeExp7_font16,17711,Random,22,exp,4,2,close,600,300,50,B,R,FALSE,498.8570000045,5f0e13040fa43b1294cad639,1920,1040,1
SaccadeExp7_font16,17711,Random,23,exp,4,3,opposite,1800,650,400,R,R,TRUE,681.120000001509,5f0e13040fa43b1294cad639,1920,1040,1
SaccadeExp7_font16,17711,Random,24,exp,2,1,opposite,1400,650,400,B,R,FALSE,634.729999998584,5f0e13040fa43b1294cad639,1920,1040,1
SaccadeExp7_font16,17711,Random,25,exp,4,3,opposite,1800,300,50,P,P,TRUE,346.063000002876,5f0e13040fa43b1294cad639,1920,1040,1
SaccadeExp7_font16,17711,Random,26,exp,3,4,opposite,1000,650,400,R,R,TRUE,409.233999998309,5f0e13040fa43b1294cad639,1920,1040,1
SaccadeExp7_font16,17711,Random,27,exp,3,2,close,200,300,50,R,B,FALSE,820.284000004642,5f0e13040fa43b1294cad639,1920,1040,1
SaccadeExp7_font16,17711,Random,28,exp,3,2,close,1800,300,50,P,R,FALSE,476.984000004362,5f0e13040fa43b1294cad639,1920,1040,1
SaccadeExp7_font16,17711,Random,29,exp,4,1,close,1000,650,400,R,B,FALSE,1062.0410000016,5f0e13040fa43b1294cad639,1920,1040,1
SaccadeExp7_font16,17711,Random,30,exp,3,4,opposite,1800,650,400,B,P,FALSE,326.842000001576,5f0e13040fa43b1294cad639,1920,1040,1
SaccadeExp7_font16,17711,Random,31,exp,3,1,close,1400,300,50,P,B,FALSE,948.455999999773,5f0e13040fa43b1294cad639,1920,1040,1
SaccadeExp7_font16,17711,Random,32,exp,2,3,close,200,650,400,P,P,TRUE,361.944000001531,5f0e13040fa43b1294cad639,1920,1040,1
SaccadeExp7_font16,17711,Random,33,exp,4,1,close,1800,650,400,R,R,TRUE,904.129999998491,5f0e13040fa43b1294cad639,1920,1040,1
SaccadeExp7_font16,17711,Random,34,exp,2,4,close,1400,650,400,B,B,TRUE,670.773000004701,5f0e13040fa43b1294cad639,1920,1040,1
SaccadeExp7_font16,17711,Random,35,exp,4,3,opposite,1800,300,50,B,B,TRUE,861.329000001308,5f0e13040fa43b1294cad639,1920,1040,1
SaccadeExp7_font16,17711,Random,36,exp,4,2,close,1800,300,50,B,R,FALSE,420.447000001557,5f0e13040fa43b1294cad639,1920,1040,1
SaccadeExp7_font16,17711,Random,37,exp,3,2,close,200,650,400,R,R,TRUE,481.346000003163,5f0e13040fa43b1294cad639,1920,1040,1
SaccadeExp7_font16,17711,Random,38,exp,2,4,close,600,300,50,P,P,TRUE,392.369000004604,5f0e13040fa43b1294cad639,1920,1040,1
SaccadeExp7_font16,17711,Random,39,exp,3,2,close,200,650,400,B,B,TRUE,742.104999998584,5f0e13040fa43b1294cad639,1920,1040,1
SaccadeExp7_font16,17711,Random,40,exp,1,3,close,1000,650,400,P,P,TRUE,853.089999998454,5f0e13040fa43b1294cad639,1920,1040,1
SaccadeExp7_font16,17711,Random,41,exp,2,4,close,200,650,400,B,B,TRUE,782.598999999929,5f0e13040fa43b1294cad639,1920,1040,1
SaccadeExp7_font16,17711,Random,42,exp,2,3,close,200,650,400,B,R,FALSE,588.454000001308,5f0e13040fa43b1294cad639,1920,1040,1
SaccadeExp7_font16,17711,Random,43,exp,4,3,opposite,1000,650,400,B,B,TRUE,384.696000004653,5f0e13040fa43b1294cad639,1920,1040,1
SaccadeExp7_font16,17711,Random,44,exp,1,4,close,1800,650,400,P,P,TRUE,476.37100000307,5f0e13040fa43b1294cad639,1920,1040,1
SaccadeExp7_font16,17711,Random,45,exp,4,1,close,200,650,400,P,B,FALSE,742.694000001531,5f0e13040fa43b1294cad639,1920,1040,1
SaccadeExp7_font16,17711,Random,46,exp,2,3,close,600,300,50,P,P,TRUE,515.798000001349,5f0e13040fa43b1294cad639,1920,1040,1
SaccadeExp7_font16,17711,Random,47,exp,4,1,close,600,300,50,R,B,FALSE,1161.28400000138,5f0e13040fa43b1294cad639,1920,1040,1
SaccadeExp7_font16,17711,Random,48,exp,4,3,opposite,200,300,50,P,B,FALSE,773.895000002813,5f0e13040fa43b1294cad639,1920,1040,1
SaccadeExp7_font16,17711,Random,49,exp,2,4,close,1800,300,50,B,R,FALSE,624.219000000041,5f0e13040fa43b1294cad639,1920,1040,1
SaccadeExp7_font16,17711,Random,50,exp,2,3,close,200,650,400,R,B,FALSE,676.416000002995,5f0e13040fa43b1294cad639,1920,1040,1
SaccadeExp7_font16,17711,Random,51,exp,2,3,close,600,650,400,B,P,FALSE,613.468000003137,5f0e13040fa43b1294cad639,1920,1040,1
SaccadeExp7_font16,17711,Random,52,exp,4,2,close,1000,650,400,R,R,TRUE,377.742999999784,5f0e13040fa43b1294cad639,1920,1040,1
SaccadeExp7_font16,17711,Random,53,exp,2,4,close,1000,300,50,B,R,FALSE,548.878000001423,5f0e13040fa43b1294cad639,1920,1040,1
SaccadeExp7_font16,17711,Random,54,exp,3,1,close,1400,650,400,R,R,TRUE,459.13200000301,5f0e13040fa43b1294cad639,1920,1040,1
SaccadeExp7_font16,17711,Random,55,exp,2,1,opposite,1000,650,400,B,B,TRUE,276.14600000158,5f0e13040fa43b1294cad639,1920,1040,1
SaccadeExp7_font16,17711,Random,56,exp,4,2,close,1400,300,50,B,R,FALSE,516.349999998696,5f0e13040fa43b1294cad639,1920,1040,1
SaccadeExp7_font16,17711,Random,57,exp,4,2,close,1000,650,400,B,R,FALSE,411.416000000201,5f0e13040fa43b1294cad639,1920,1040,1
SaccadeExp7_font16,17711,Random,58,exp,2,3,close,1800,650,400,B,B,TRUE,566.594999998342,5f0e13040fa43b1294cad639,1920,1040,1
SaccadeExp7_font16,17711,Random,59,exp,4,3,opposite,600,650,400,R,B,FALSE,604.617999998387,5f0e13040fa43b1294cad639,1920,1040,1
SaccadeExp7_font16,17711,Random,60,exp,1,3,close,200,300,50,B,R,FALSE,575.35399999842,5f0e13040fa43b1294cad639,1920,1040,1
SaccadeExp7_font16,17711,Random,61,exp,2,4,close,1000,650,400,B,B,TRUE,471.694000001531,5f0e13040fa43b1294cad639,1920,1040,1
SaccadeExp7_font16,17711,Random,62,exp,3,1,close,200,650,400,B,R,FALSE,482.290000000037,5f0e13040fa43b1294cad639,1920,1040,1
SaccadeExp7_font16,17711,Random,63,exp,3,2,close,600,650,400,B,R,FALSE,506.955000001471,5f0e13040fa43b1294cad639,1920,1040,1
SaccadeExp7_font16,17711,Random,64,exp,4,1,close,1400,650,400,P,R,FALSE,530.711000002921,5f0e13040fa43b1294cad639,1920,1040,1
SaccadeExp7_font16,17711,Random,65,exp,4,2,close,1800,650,400,R,R,TRUE,441.232000003103,5f0e13040fa43b1294cad639,1920,1040,1
SaccadeExp7_font16,17711,Random,66,exp,2,3,close,1800,300,50,R,P,FALSE,593.125999998301,5f0e13040fa43b1294cad639,1920,1040,1
SaccadeExp7_font16,17711,Random,67,exp,2,4,close,1000,300,50,R,R,TRUE,612.899000001606,5f0e13040fa43b1294cad639,1920,1040,1
SaccadeExp7_font16,17711,Random,68,exp,2,4,close,200,650,400,P,P,TRUE,393.144000003114,5f0e13040fa43b1294cad639,1920,1040,1
SaccadeExp7_font16,17711,Random,69,exp,3,2,close,1000,300,50,R,R,TRUE,468.023999998346,5f0e13040fa43b1294cad639,1920,1040,1
SaccadeExp7_font16,17711,Random,70,exp,1,4,close,1400,650,400,R,P,FALSE,557.752000001259,5f0e13040fa43b1294cad639,1920,1040,1
SaccadeExp7_font16,17711,Random,71,exp,2,1,opposite,200,300,50,P,P,TRUE,466.932000004686,5f0e13040fa43b1294cad639,1920,1040,1
SaccadeExp7_font16,17711,Random,72,exp,3,4,opposite,200,300,50,R,R,TRUE,634.78200000152,5f0e13040fa43b1294cad639,1920,1040,1
SaccadeExp7_font16,17711,Random,73,exp,3,1,close,1400,300,50,R,B,FALSE,715.069999998435,5f0e13040fa43b1294cad639,1920,1040,1
SaccadeExp7_font16,17711,Random,74,exp,1,4,close,600,650,400,R,R,TRUE,331.531000001356,5f0e13040fa43b1294cad639,1920,1040,1
SaccadeExp7_font16,17711,Random,75,exp,1,4,close,200,300,50,B,R,FALSE,346.411000003107,5f0e13040fa43b1294cad639,1920,1040,1
SaccadeExp7_font16,17711,Random,76,exp,2,1,opposite,1000,300,50,B,R,FALSE,807.626000004355,5f0e13040fa43b1294cad639,1920,1040,1
SaccadeExp7_font16,17711,Random,77,exp,3,1,close,1000,300,50,R,R,TRUE,785.199999998324,5f0e13040fa43b1294cad639,1920,1040,1
SaccadeExp7_font16,17711,Random,78,exp,1,2,opposite,1800,300,50,R,B,FALSE,1435.20599999838,5f0e13040fa43b1294cad639,1920,1040,1
SaccadeExp7_font16,17711,Random,79,exp,4,3,opposite,1400,650,400,R,R,TRUE,428.941000002902,5f0e13040fa43b1294cad639,1920,1040,1
SaccadeExp7_font16,17711,Random,80,exp,3,2,close,1400,650,400,B,B,TRUE,375.800000001676,5f0e13040fa43b1294cad639,1920,1040,1
SaccadeExp7_font16,17711,Random,81,exp,4,3,opposite,1400,300,50,B,B,TRUE,499.009999998379,5f0e13040fa43b1294cad639,1920,1040,1
SaccadeExp7_font16,17711,Random,82,exp,2,4,close,600,650,400,B,P,FALSE,843.044000003021,5f0e13040fa43b1294cad639,1920,1040,1
SaccadeExp7_font16,17711,Random,83,exp,1,4,close,1400,300,50,B,B,TRUE,611.491000003181,5f0e13040fa43b1294cad639,1920,1040,1
SaccadeExp7_font16,17711,Random,84,exp,1,3,close,600,300,50,B,B,TRUE,294.061000003014,5f0e13040fa43b1294cad639,1920,1040,1
SaccadeExp7_font16,17711,Random,85,exp,2,1,opposite,600,300,50,B,B,TRUE,374.208000001498,5f0e13040fa43b1294cad639,1920,1040,1
SaccadeExp7_font16,17711,Random,86,exp,2,4,close,1400,300,50,R,R,TRUE,496.907000000123,5f0e13040fa43b1294cad639,1920,1040,1
SaccadeExp7_font16,17711,Random,87,exp,1,2,opposite,1000,300,50,B,R,FALSE,791.953999998514,5f0e13040fa43b1294cad639,1920,1040,1
SaccadeExp7_font16,17711,Random,88,exp,1,3,close,1000,300,50,R,B,FALSE,403.446000001393,5f0e13040fa43b1294cad639,1920,1040,1
SaccadeExp7_font16,17711,Random,89,exp,1,4,close,1000,300,50,P,P,TRUE,381.976000004448,5f0e13040fa43b1294cad639,1920,1040,1
SaccadeExp7_font16,17711,Random,90,exp,1,4,close,1800,300,50,R,R,TRUE,391.671000000089,5f0e13040fa43b1294cad639,1920,1040,1
SaccadeExp7_font16,17711,Random,91,exp,3,2,close,600,650,400,P,P,TRUE,597.422000003047,5f0e13040fa43b1294cad639,1920,1040,1
SaccadeExp7_font16,17711,Random,92,exp,1,2,opposite,200,300,50,P,P,TRUE,504.03900000127,5f0e13040fa43b1294cad639,1920,1040,1
SaccadeExp7_font16,17711,Random,93,exp,1,3,close,1400,650,400,B,B,TRUE,559.907999999821,5f0e13040fa43b1294cad639,1920,1040,1
SaccadeExp7_font16,17711,Random,94,exp,3,1,close,600,300,50,P,P,TRUE,436.481000004336,5f0e13040fa43b1294cad639,1920,1040,1
SaccadeExp7_font16,17711,Random,95,exp,3,1,close,600,650,400,P,P,TRUE,511.729000004474,5f0e13040fa43b1294cad639,1920,1040,1
SaccadeExp7_font16,17711,Random,96,exp,3,2,close,1400,650,400,P,P,TRUE,439.280000004452,5f0e13040fa43b1294cad639,1920,1040,1
SaccadeExp7_font16,17711,Random,97,exp,3,2,close,1800,650,400,P,P,TRUE,817.578000003006,5f0e13040fa43b1294cad639,1920,1040,1
SaccadeExp7_font16,17711,Random,98,exp,3,4,opposite,600,300,50,R,R,TRUE,410.878000001423,5f0e13040fa43b1294cad639,1920,1040,1
SaccadeExp7_font16,17711,Random,99,exp,4,3,opposite,1000,300,50,P,P,TRUE,341.370000002906,5f0e13040fa43b1294cad639,1920,1040,1
SaccadeExp7_font16,17711,Random,100,exp,2,4,close,1800,300,50,P,P,TRUE,449.726000001654,5f0e13040fa43b1294cad639,1920,1040,1
SaccadeExp7_font16,17711,Random,101,exp,3,2,close,200,300,50,B,R,FALSE,731.271999998484,5f0e13040fa43b1294cad639,1920,1040,1
SaccadeExp7_font16,17711,Random,102,exp,2,3,close,200,300,50,R,B,FALSE,760.436999999918,5f0e13040fa43b1294cad639,1920,1040,1
SaccadeExp7_font16,17711,Random,103,exp,1,2,opposite,1000,300,50,P,R,FALSE,1699.91000000155,5f0e13040fa43b1294cad639,1920,1040,1
SaccadeExp7_font16,17711,Random,104,exp,3,1,close,1800,300,50,P,P,TRUE,471.509999999776,5f0e13040fa43b1294cad639,1920,1040,1
SaccadeExp7_font16,17711,Random,105,exp,3,1,close,1800,300,50,R,R,TRUE,1310.62700000126,5f0e13040fa43b1294cad639,1920,1040,1
SaccadeExp7_font16,17711,Random,106,exp,3,2,close,600,650,400,R,R,TRUE,550.476999998558,5f0e13040fa43b1294cad639,1920,1040,1
SaccadeExp7_font16,17711,Random,107,exp,4,1,close,600,650,400,R,R,TRUE,653.314000004437,5f0e13040fa43b1294cad639,1920,1040,1
SaccadeExp7_font16,17711,Random,108,exp,4,3,opposite,600,300,50,R,B,FALSE,381.206000003032,5f0e13040fa43b1294cad639,1920,1040,1
SaccadeExp7_font16,17711,Random,109,exp,2,4,close,600,300,50,B,B,TRUE,441.570000003092,5f0e13040fa43b1294cad639,1920,1040,1
SaccadeExp7_font16,17711,Random,110,exp,3,2,close,1400,300,50,R,B,FALSE,689.997000002768,5f0e13040fa43b1294cad639,1920,1040,1
SaccadeExp7_font16,17711,Random,111,exp,3,2,close,200,650,400,P,P,TRUE,419.271999998484,5f0e13040fa43b1294cad639,1920,1040,1
SaccadeExp7_font16,17711,Random,112,exp,2,4,close,200,650,400,R,R,TRUE,479.867000004277,5f0e13040fa43b1294cad639,1920,1040,1
SaccadeExp7_font16,17711,Random,113,exp,2,1,opposite,1000,650,400,P,P,TRUE,441.663000002969,5f0e13040fa43b1294cad639,1920,1040,1
SaccadeExp7_font16,17711,Random,114,exp,3,2,close,1800,650,400,B,R,FALSE,722.820999999996,5f0e13040fa43b1294cad639,1920,1040,1
SaccadeExp7_font16,17711,Random,115,exp,3,1,close,600,650,400,B,R,FALSE,594.376999998465,5f0e13040fa43b1294cad639,1920,1040,1
SaccadeExp7_font16,17711,Random,116,exp,1,3,close,1400,300,50,P,B,FALSE,565.029000000097,5f0e13040fa43b1294cad639,1920,1040,1
SaccadeExp7_font16,17711,Random,117,exp,1,2,opposite,1400,300,50,P,P,TRUE,393.049000001512,5f0e13040fa43b1294cad639,1920,1040,1
SaccadeExp7_font16,17711,Random,118,exp,4,3,opposite,1400,300,50,R,P,FALSE,435.56100000022,5f0e13040fa43b1294cad639,1920,1040,1
SaccadeExp7_font16,17711,Random,119,exp,3,4,opposite,600,650,400,P,P,TRUE,334.617999998387,5f0e13040fa43b1294cad639,1920,1040,1
SaccadeExp7_font16,17711,Random,120,exp,2,4,close,1400,300,50,P,P,TRUE,331.526000000071,5f0e13040fa43b1294cad639,1920,1040,1
SaccadeExp7_font16,17711,Colour,1,exp,5,1,close,200,650,400,R,B,FALSE,1058.14200000465,5f0e13040fa43b1294cad639,1920,1040,1
SaccadeExp7_font16,17711,Colour,2,exp,5,4,close,1400,300,50,B,B,TRUE,593.953000003006,5f0e13040fa43b1294cad639,1920,1040,1
SaccadeExp7_font16,17711,Colour,3,exp,5,1,close,1400,650,400,R,P,FALSE,517.743000004441,5f0e13040fa43b1294cad639,1920,1040,1
SaccadeExp7_font16,17711,Colour,4,exp,5,4,close,1800,300,50,P,P,TRUE,362.694999998435,5f0e13040fa43b1294cad639,1920,1040,1
SaccadeExp7_font16,17711,Colour,5,exp,5,3,close,600,650,400,P,P,TRUE,377.604000003077,5f0e13040fa43b1294cad639,1920,1040,1
SaccadeExp7_font16,17711,Colour,6,exp,5,1,close,1000,650,400,R,B,FALSE,1366.76400000462,5f0e13040fa43b1294cad639,1920,1040,1
SaccadeExp7_font16,17711,Colour,7,exp,5,1,close,200,300,50,B,B,TRUE,409.797999999952,5f0e13040fa43b1294cad639,1920,1040,1
SaccadeExp7_font16,17711,Colour,8,exp,5,1,close,600,300,50,P,P,TRUE,436.793000000063,5f0e13040fa43b1294cad639,1920,1040,1
SaccadeExp7_font16,17711,Colour,9,exp,5,2,close,200,300,50,B,R,FALSE,558.570999999996,5f0e13040fa43b1294cad639,1920,1040,1
SaccadeExp7_font16,17711,Colour,10,exp,5,1,close,1000,650,400,B,R,FALSE,612.275000003166,5f0e13040fa43b1294cad639,1920,1040,1
SaccadeExp7_font16,17711,Colour,11,exp,5,1,close,600,300,50,B,B,TRUE,390.944000002928,5f0e13040fa43b1294cad639,1920,1040,1
SaccadeExp7_font16,17711,Colour,12,exp,5,2,close,1000,300,50,B,B,TRUE,370.882999998517,5f0e13040fa43b1294cad639,1920,1040,1
SaccadeExp7_font16,17711,Colour,13,exp,5,3,close,1800,300,50,B,B,TRUE,397.845999998506,5f0e13040fa43b1294cad639,1920,1040,1
SaccadeExp7_font16,17711,Colour,14,exp,5,3,close,1000,650,400,P,P,TRUE,328.57100000279,5f0e13040fa43b1294cad639,1920,1040,1
SaccadeExp7_font16,17711,Colour,15,exp,5,4,close,1800,300,50,B,B,TRUE,437.843999998644,5f0e13040fa43b1294cad639,1920,1040,1
SaccadeExp7_font16,17711,Colour,16,exp,5,4,close,200,650,400,P,P,TRUE,401.30000000447,5f0e13040fa43b1294cad639,1920,1040,1
SaccadeExp7_font16,17711,Colour,17,exp,5,4,close,200,650,400,B,B,TRUE,542.310000004247,5f0e13040fa43b1294cad639,1920,1040,1
SaccadeExp7_font16,17711,Colour,18,exp,5,1,close,1400,300,50,P,P,TRUE,387.115000000224,5f0e13040fa43b1294cad639,1920,1040,1
SaccadeExp7_font16,17711,Colour,19,exp,5,3,close,1000,300,50,R,R,TRUE,349.923000004608,5f0e13040fa43b1294cad639,1920,1040,1
SaccadeExp7_font16,17711,Colour,20,exp,5,2,close,1800,300,50,B,B,TRUE,346.082000001334,5f0e13040fa43b1294cad639,1920,1040,1
SaccadeExp7_font16,17711,Colour,21,exp,5,1,close,600,650,400,R,B,FALSE,617.291000001598,5f0e13040fa43b1294cad639,1920,1040,1
SaccadeExp7_font16,17711,Colour,22,exp,5,4,close,600,650,400,R,R,TRUE,460.972000001464,5f0e13040fa43b1294cad639,1920,1040,1
SaccadeExp7_font16,17711,Colour,23,exp,5,2,close,600,300,50,P,P,TRUE,406.126999999862,5f0e13040fa43b1294cad639,1920,1040,1
SaccadeExp7_font16,17711,Colour,24,exp,5,4,close,1800,650,400,P,P,TRUE,337.404999998398,5f0e13040fa43b1294cad639,1920,1040,1
SaccadeExp7_font16,17711,Colour,25,exp,5,1,close,1000,300,50,R,B,FALSE,349.860000004526,5f0e13040fa43b1294cad639,1920,1040,1
SaccadeExp7_font16,17711,Colour,26,exp,5,1,close,1800,650,400,B,B,TRUE,411.673000001349,5f0e13040fa43b1294cad639,1920,1040,1
SaccadeExp7_font16,17711,Colour,27,exp,5,4,close,1800,300,50,R,R,TRUE,405.836000002921,5f0e13040fa43b1294cad639,1920,1040,1
SaccadeExp7_font16,17711,Colour,28,exp,5,3,close,1800,650,400,B,B,TRUE,448.66400000127,5f0e13040fa43b1294cad639,1920,1040,1
SaccadeExp7_font16,17711,Colour,29,exp,5,1,close,200,650,400,B,B,TRUE,346.800000003073,5f0e13040fa43b1294cad639,1920,1040,1
SaccadeExp7_font16,17711,Colour,30,exp,5,1,close,1400,300,50,B,B,TRUE,375.550999999978,5f0e13040fa43b1294cad639,1920,1040,1
SaccadeExp7_font16,17711,Colour,31,exp,5,4,close,1000,650,400,P,P,TRUE,532.702000004239,5f0e13040fa43b1294cad639,1920,1040,1
SaccadeExp7_font16,17711,Colour,32,exp,5,4,close,1800,650,400,R,P,FALSE,586.476000003051,5f0e13040fa43b1294cad639,1920,1040,1
SaccadeExp7_font16,17711,Colour,33,exp,5,3,close,1400,300,50,P,P,TRUE,493.537000001408,5f0e13040fa43b1294cad639,1920,1040,1
SaccadeExp7_font16,17711,Colour,34,exp,5,1,close,1800,300,50,R,R,TRUE,387.25700000301,5f0e13040fa43b1294cad639,1920,1040,1
SaccadeExp7_font16,17711,Colour,35,exp,5,1,close,200,300,50,R,R,TRUE,415.608000001404,5f0e13040fa43b1294cad639,1920,1040,1
SaccadeExp7_font16,17711,Colour,36,exp,5,2,close,1800,650,400,B,R,FALSE,1210.27100000158,5f0e13040fa43b1294cad639,1920,1040,1
SaccadeExp7_font16,17711,Colour,37,exp,5,3,close,200,650,400,P,P,TRUE,342.185000004247,5f0e13040fa43b1294cad639,1920,1040,1
SaccadeExp7_font16,17711,Colour,38,exp,5,4,close,1000,650,400,R,R,TRUE,549.245000000112,5f0e13040fa43b1294cad639,1920,1040,1
SaccadeExp7_font16,17711,Colour,39,exp,5,3,close,1400,300,50,R,R,TRUE,632.526000001468,5f0e13040fa43b1294cad639,1920,1040,1
SaccadeExp7_font16,17711,Colour,40,exp,5,4,close,1400,300,50,R,R,TRUE,488.300999999978,5f0e13040fa43b1294cad639,1920,1040,1
SaccadeExp7_font16,17711,Colour,41,exp,5,4,close,1400,300,50,P,P,TRUE,462.684999998659,5f0e13040fa43b1294cad639,1920,1040,1
SaccadeExp7_font16,17711,Colour,42,exp,5,3,close,1400,650,400,R,R,TRUE,488.501999999862,5f0e13040fa43b1294cad639,1920,1040,1
SaccadeExp7_font16,17711,Colour,43,exp,5,1,close,1400,650,400,P,P,TRUE,656.559000004549,5f0e13040fa43b1294cad639,1920,1040,1
SaccadeExp7_font16,17711,Colour,44,exp,5,4,close,1000,300,50,P,P,TRUE,465.143000001553,5f0e13040fa43b1294cad639,1920,1040,1
SaccadeExp7_font16,17711,Colour,45,exp,5,3,close,600,650,400,B,B,TRUE,697.8860000032,5f0e13040fa43b1294cad639,1920,1040,1
SaccadeExp7_font16,17711,Colour,46,exp,5,2,close,1800,650,400,P,P,TRUE,713.882999999914,5f0e13040fa43b1294cad639,1920,1040,1
SaccadeExp7_font16,17711,Colour,47,exp,5,4,close,600,650,400,B,R,FALSE,650.464000004344,5f0e13040fa43b1294cad639,1920,1040,1
SaccadeExp7_font16,17711,Colour,48,exp,5,2,close,600,300,50,B,B,TRUE,395.310000001453,5f0e13040fa43b1294cad639,1920,1040,1
SaccadeExp7_font16,17711,Colour,49,exp,5,4,close,200,650,400,R,R,TRUE,504.065000004601,5f0e13040fa43b1294cad639,1920,1040,1
SaccadeExp7_font16,17711,Colour,50,exp,5,1,close,600,650,400,P,P,TRUE,336.226000003051,5f0e13040fa43b1294cad639,1920,1040,1
SaccadeExp7_font16,17711,Colour,51,exp,5,1,close,200,650,400,P,P,TRUE,336.18200000003,5f0e13040fa43b1294cad639,1920,1040,1
SaccadeExp7_font16,17711,Colour,52,exp,5,3,close,600,650,400,R,R,TRUE,383.684000001289,5f0e13040fa43b1294cad639,1920,1040,1
SaccadeExp7_font16,17711,Colour,53,exp,5,2,close,1400,650,400,R,R,TRUE,507.55400000466,5f0e13040fa43b1294cad639,1920,1040,1
SaccadeExp7_font16,17711,Colour,54,exp,5,2,close,1000,650,400,R,R,TRUE,499.823000004515,5f0e13040fa43b1294cad639,1920,1040,1
SaccadeExp7_font16,17711,Colour,55,exp,5,3,close,600,300,50,R,R,TRUE,378.89000000013,5f0e13040fa43b1294cad639,1920,1040,1
SaccadeExp7_font16,17711,Colour,56,exp,5,3,close,200,300,50,R,R,TRUE,423.424000000115,5f0e13040fa43b1294cad639,1920,1040,1
SaccadeExp7_font16,17711,Colour,57,exp,5,3,close,1000,300,50,B,B,TRUE,1649.0719999983,5f0e13040fa43b1294cad639,1920,1040,1
SaccadeExp7_font16,17711,Colour,58,exp,5,4,close,1000,300,50,B,R,FALSE,537.277000001632,5f0e13040fa43b1294cad639,1920,1040,1
SaccadeExp7_font16,17711,Colour,59,exp,5,4,close,1800,650,400,B,P,FALSE,606.635000003036,5f0e13040fa43b1294cad639,1920,1040,1
SaccadeExp7_font16,17711,Colour,60,exp,5,1,close,1800,650,400,P,P,TRUE,450.206000001635,5f0e13040fa43b1294cad639,1920,1040,1
SaccadeExp7_font16,17711,Colour,61,exp,5,1,close,1400,300,50,R,R,TRUE,342.868000003044,5f0e13040fa43b1294cad639,1920,1040,1
SaccadeExp7_font16,17711,Colour,62,exp,5,2,close,600,650,400,B,B,TRUE,694.415000000037,5f0e13040fa43b1294cad639,1920,1040,1
SaccadeExp7_font16,17711,Colour,63,exp,5,3,close,200,300,50,P,P,TRUE,358.106000000145,5f0e13040fa43b1294cad639,1920,1040,1
SaccadeExp7_font16,17711,Colour,64,exp,5,3,close,600,300,50,P,R,FALSE,610.710000002757,5f0e13040fa43b1294cad639,1920,1040,1
SaccadeExp7_font16,17711,Colour,65,exp,5,3,close,1000,650,400,R,R,TRUE,519.243000004441,5f0e13040fa43b1294cad639,1920,1040,1
SaccadeExp7_font16,17711,Colour,66,exp,5,4,close,1400,650,400,P,R,FALSE,429.819999999832,5f0e13040fa43b1294cad639,1920,1040,1
SaccadeExp7_font16,17711,Colour,67,exp,5,1,close,1400,650,400,B,P,FALSE,1048.67300000461,5f0e13040fa43b1294cad639,1920,1040,1
SaccadeExp7_font16,17711,Colour,68,exp,5,2,close,200,650,400,B,B,TRUE,1035.33900000155,5f0e13040fa43b1294cad639,1920,1040,1
SaccadeExp7_font16,17711,Colour,69,exp,5,2,close,1800,300,50,R,B,FALSE,6348.07299999986,5f0e13040fa43b1294cad639,1920,1040,1
SaccadeExp7_font16,17711,Colour,70,exp,5,3,close,1800,300,50,R,R,TRUE,497.924999999814,5f0e13040fa43b1294cad639,1920,1040,1
SaccadeExp7_font16,17711,Colour,71,exp,5,1,close,200,300,50,P,P,TRUE,520.37099999981,5f0e13040fa43b1294cad639,1920,1040,1
SaccadeExp7_font16,17711,Colour,72,exp,5,3,close,600,300,50,B,B,TRUE,799.041999999899,5f0e13040fa43b1294cad639,1920,1040,1
SaccadeExp7_font16,17711,Colour,73,exp,5,2,close,600,300,50,R,R,TRUE,840.715000003111,5f0e13040fa43b1294cad639,1920,1040,1
SaccadeExp7_font16,17711,Colour,74,exp,5,3,close,200,300,50,B,B,TRUE,642.352999998722,5f0e13040fa43b1294cad639,1920,1040,1
SaccadeExp7_font16,17711,Colour,75,exp,5,2,close,1000,650,400,P,P,TRUE,469.461999998428,5f0e13040fa43b1294cad639,1920,1040,1
SaccadeExp7_font16,17711,Colour,76,exp,5,3,close,1400,650,400,B,B,TRUE,637.803000004496,5f0e13040fa43b1294cad639,1920,1040,1
SaccadeExp7_font16,17711,Colour,77,exp,5,1,close,600,300,50,R,R,TRUE,590.806000001263,5f0e13040fa43b1294cad639,1920,1040,1
SaccadeExp7_font16,17711,Colour,78,exp,5,1,close,1800,300,50,B,B,TRUE,657.262999998406,5f0e13040fa43b1294cad639,1920,1040,1
SaccadeExp7_font16,17711,Colour,79,exp,5,4,close,600,300,50,B,R,FALSE,897.953000001609,5f0e13040fa43b1294cad639,1920,1040,1
SaccadeExp7_font16,17711,Colour,80,exp,5,2,close,200,300,50,P,P,TRUE,793.760000004433,5f0e13040fa43b1294cad639,1920,1040,1
SaccadeExp7_font16,17711,Colour,81,exp,5,4,close,200,300,50,B,B,TRUE,501.326000003144,5f0e13040fa43b1294cad639,1920,1040,1
SaccadeExp7_font16,17711,Colour,82,exp,5,3,close,200,650,400,B,B,TRUE,558.341999998316,5f0e13040fa43b1294cad639,1920,1040,1
SaccadeExp7_font16,17711,Colour,83,exp,5,4,close,200,300,50,P,P,TRUE,466.978999999817,5f0e13040fa43b1294cad639,1920,1040,1
SaccadeExp7_font16,17711,Colour,84,exp,5,4,close,600,650,400,P,P,TRUE,412.47800000431,5f0e13040fa43b1294cad639,1920,1040,1
SaccadeExp7_font16,17711,Colour,85,exp,5,2,close,1400,650,400,B,R,FALSE,760.10400000168,5f0e13040fa43b1294cad639,1920,1040,1
SaccadeExp7_font16,17711,Colour,86,exp,5,4,close,1000,650,400,B,B,TRUE,518.831999999937,5f0e13040fa43b1294cad639,1920,1040,1
SaccadeExp7_font16,17711,Colour,87,exp,5,3,close,1800,650,400,P,P,TRUE,300.654999998398,5f0e13040fa43b1294cad639,1920,1040,1
SaccadeExp7_font16,17711,Colour,88,exp,5,4,close,200,300,50,R,R,TRUE,652.166000000201,5f0e13040fa43b1294cad639,1920,1040,1
SaccadeExp7_font16,17711,Colour,89,exp,5,2,close,1000,650,400,B,B,TRUE,509.981999999844,5f0e13040fa43b1294cad639,1920,1040,1
SaccadeExp7_font16,17711,Colour,90,exp,5,2,close,200,650,400,P,P,TRUE,535.104000004474,5f0e13040fa43b1294cad639,1920,1040,1
SaccadeExp7_font16,17711,Colour,91,exp,5,3,close,1000,300,50,P,P,TRUE,331.754999998491,5f0e13040fa43b1294cad639,1920,1040,1
SaccadeExp7_font16,17711,Colour,92,exp,5,2,close,1000,300,50,P,R,FALSE,744.61700000288,5f0e13040fa43b1294cad639,1920,1040,1
SaccadeExp7_font16,17711,Colour,93,exp,5,1,close,1000,300,50,B,B,TRUE,500.876000002958,5f0e13040fa43b1294cad639,1920,1040,1
SaccadeExp7_font16,17711,Colour,94,exp,5,4,close,600,300,50,R,R,TRUE,395.809000004549,5f0e13040fa43b1294cad639,1920,1040,1
SaccadeExp7_font16,17711,Colour,95,exp,5,2,close,600,650,400,P,P,TRUE,440.870000002906,5f0e13040fa43b1294cad639,1920,1040,1
SaccadeExp7_font16,17711,Colour,96,exp,5,2,close,200,300,50,R,R,TRUE,402.815000004601,5f0e13040fa43b1294cad639,1920,1040,1
SaccadeExp7_font16,17711,Colour,97,exp,5,2,close,600,650,400,R,R,TRUE,303.834000003058,5f0e13040fa43b1294cad639,1920,1040,1
SaccadeExp7_font16,17711,Colour,98,exp,5,4,close,1400,650,400,B,B,TRUE,559.138000004459,5f0e13040fa43b1294cad639,1920,1040,1
SaccadeExp7_font16,17711,Colour,99,exp,5,2,close,1000,300,50,R,R,TRUE,323.771000000183,5f0e13040fa43b1294cad639,1920,1040,1
SaccadeExp7_font16,17711,Colour,100,exp,5,2,close,1800,650,400,R,B,FALSE,834.372999998741,5f0e13040fa43b1294cad639,1920,1040,1
SaccadeExp7_font16,17711,Colour,101,exp,5,3,close,200,650,400,R,R,TRUE,557.207000003196,5f0e13040fa43b1294cad639,1920,1040,1
SaccadeExp7_font16,17711,Colour,102,exp,5,2,close,1400,300,50,B,R,FALSE,369.566999999806,5f0e13040fa43b1294cad639,1920,1040,1
SaccadeExp7_font16,17711,Colour,103,exp,5,1,close,1000,650,400,P,P,TRUE,607.126000001561,5f0e13040fa43b1294cad639,1920,1040,1
SaccadeExp7_font16,17711,Colour,104,exp,5,2,close,1800,300,50,P,R,FALSE,384.232000003103,5f0e13040fa43b1294cad639,1920,1040,1
SaccadeExp7_font16,17711,Colour,105,exp,5,1,close,600,650,400,B,B,TRUE,382.594000000041,5f0e13040fa43b1294cad639,1920,1040,1
SaccadeExp7_font16,17711,Colour,106,exp,5,1,close,1800,650,400,R,P,FALSE,681.780000001658,5f0e13040fa43b1294cad639,1920,1040,1
SaccadeExp7_font16,17711,Colour,107,exp,5,2,close,200,650,400,R,R,TRUE,427.335000004619,5f0e13040fa43b1294cad639,1920,1040,1
SaccadeExp7_font16,17711,Colour,108,exp,5,3,close,1400,300,50,B,B,TRUE,404.438000001479,5f0e13040fa43b1294cad639,1920,1040,1
SaccadeExp7_font16,17711,Colour,109,exp,5,3,close,1400,650,400,P,P,TRUE,479.830000004265,5f0e13040fa43b1294cad639,1920,1040,1
SaccadeExp7_font16,17711,Colour,110,exp,5,2,close,1400,650,400,P,P,TRUE,760.95299999835,5f0e13040fa43b1294cad639,1920,1040,1
SaccadeExp7_font16,17711,Colour,111,exp,5,3,close,1000,650,400,B,B,TRUE,935.367999999784,5f0e13040fa43b1294cad639,1920,1040,1
SaccadeExp7_font16,17711,Colour,112,exp,5,1,close,1000,300,50,P,R,FALSE,619.806999998633,5f0e13040fa43b1294cad639,1920,1040,1
SaccadeExp7_font16,17711,Colour,113,exp,5,1,close,1800,300,50,P,P,TRUE,555.693000001367,5f0e13040fa43b1294cad639,1920,1040,1
SaccadeExp7_font16,17711,Colour,114,exp,5,4,close,1000,300,50,R,R,TRUE,416.497999998741,5f0e13040fa43b1294cad639,1920,1040,1
SaccadeExp7_font16,17711,Colour,115,exp,5,4,close,600,300,50,P,P,TRUE,635.022000004537,5f0e13040fa43b1294cad639,1920,1040,1
SaccadeExp7_font16,17711,Colour,116,exp,5,3,close,1800,650,400,R,R,TRUE,652.416000000201,5f0e13040fa43b1294cad639,1920,1040,1
SaccadeExp7_font16,17711,Colour,117,exp,5,4,close,1400,650,400,R,R,TRUE,461.788000001572,5f0e13040fa43b1294cad639,1920,1040,1
SaccadeExp7_font16,17711,Colour,118,exp,5,2,close,1400,300,50,P,R,FALSE,501.924999998417,5f0e13040fa43b1294cad639,1920,1040,1
SaccadeExp7_font16,17711,Colour,119,exp,5,3,close,1800,300,50,P,P,TRUE,475.195999998599,5f0e13040fa43b1294cad639,1920,1040,1
SaccadeExp7_font16,17711,Colour,120,exp,5,2,close,1400,300,50,R,R,TRUE,530.436000001617,5f0e13040fa43b1294cad639,1920,1040,1
SaccadeExp7_font16,17710,Central,1,exp,5,1,close,1800,650,400,B,P,FALSE,1044.95500002385,5eda56d66594866448d580c8,1417,790,2
SaccadeExp7_font16,17710,Central,2,exp,5,3,close,1000,300,50,R,P,FALSE,1177.12900001192,5eda56d66594866448d580c8,1417,790,2
SaccadeExp7_font16,17710,Central,3,exp,5,3,close,1800,650,400,R,B,FALSE,1244.52000002385,5eda56d66594866448d580c8,1417,790,2
SaccadeExp7_font16,17710,Central,4,exp,5,3,close,200,300,50,R,B,FALSE,1140.76999997615,5eda56d66594866448d580c8,1417,790,2
SaccadeExp7_font16,17710,Central,5,exp,5,4,close,200,300,50,R,P,FALSE,1123.01599998807,5eda56d66594866448d580c8,1417,790,2
SaccadeExp7_font16,17710,Central,6,exp,5,1,close,600,300,50,B,P,FALSE,1468.24400001191,5eda56d66594866448d580c8,1417,790,2
SaccadeExp7_font16,17710,Central,7,exp,5,2,close,600,650,400,P,P,TRUE,1246.22200002384,5eda56d66594866448d580c8,1417,790,2
SaccadeExp7_font16,17710,Central,8,exp,5,1,close,200,650,400,B,P,FALSE,2770.98599997617,5eda56d66594866448d580c8,1417,790,2
SaccadeExp7_font16,17710,Central,9,exp,5,2,close,1400,300,50,P,P,TRUE,920.53899999999,5eda56d66594866448d580c8,1417,790,2
SaccadeExp7_font16,17710,Central,10,exp,5,1,close,1400,650,400,R,P,FALSE,1460.10499997615,5eda56d66594866448d580c8,1417,790,2
SaccadeExp7_font16,17710,Central,11,exp,5,2,close,200,300,50,B,P,FALSE,1045.497,5eda56d66594866448d580c8,1417,790,2
SaccadeExp7_font16,17710,Central,12,exp,5,4,close,1800,650,400,P,B,FALSE,922.072999976168,5eda56d66594866448d580c8,1417,790,2
SaccadeExp7_font16,17710,Central,13,exp,5,1,close,600,300,50,R,B,FALSE,801.559000023815,5eda56d66594866448d580c8,1417,790,2
SaccadeExp7_font16,17710,Central,14,exp,5,3,close,1400,650,400,P,R,FALSE,1865.55300002382,5eda56d66594866448d580c8,1417,790,2
SaccadeExp7_font16,17710,Central,15,exp,5,1,close,200,300,50,R,P,FALSE,1658.10900001193,5eda56d66594866448d580c8,1417,790,2
SaccadeExp7_font16,17710,Central,16,exp,5,4,close,1000,300,50,P,P,TRUE,1563.84099998808,5eda56d66594866448d580c8,1417,790,2
SaccadeExp7_font16,17710,Central,17,exp,5,3,close,200,300,50,B,R,FALSE,2047.63699998806,5eda56d66594866448d580c8,1417,790,2
SaccadeExp7_font16,17710,Central,18,exp,5,1,close,200,300,50,B,B,TRUE,1250.90100000001,5eda56d66594866448d580c8,1417,790,2
SaccadeExp7_font16,17710,Central,19,exp,5,4,close,200,300,50,B,P,FALSE,994.250999976182,5eda56d66594866448d580c8,1417,790,2
SaccadeExp7_font16,17710,Central,20,exp,5,1,close,1800,300,50,R,B,FALSE,1541.05499998806,5eda56d66594866448d580c8,1417,790,2
SaccadeExp7_font16,17710,Central,21,exp,5,1,close,1800,650,400,R,B,FALSE,850.10200002382,5eda56d66594866448d580c8,1417,790,2
SaccadeExp7_font16,17710,Central,22,exp,5,3,close,200,650,400,R,B,FALSE,740.584000011906,5eda56d66594866448d580c8,1417,790,2
SaccadeExp7_font16,17710,Central,23,exp,5,2,close,1400,650,400,P,P,TRUE,1142.364,5eda56d66594866448d580c8,1417,790,2
SaccadeExp7_font16,17710,Central,24,exp,5,3,close,1400,650,400,B,B,TRUE,994.271999976132,5eda56d66594866448d580c8,1417,790,2
SaccadeExp7_font16,17710,Central,25,exp,5,2,close,1000,300,50,B,P,FALSE,1230.44400002382,5eda56d66594866448d580c8,1417,790,2
SaccadeExp7_font16,17710,Central,26,exp,5,1,close,200,300,50,P,B,FALSE,1200.46399999998,5eda56d66594866448d580c8,1417,790,2
SaccadeExp7_font16,17710,Central,27,exp,5,1,close,1000,650,400,B,R,FALSE,1739.05800002383,5eda56d66594866448d580c8,1417,790,2
SaccadeExp7_font16,17710,Central,28,exp,5,3,close,600,650,400,R,R,TRUE,1058.25800001191,5eda56d66594866448d580c8,1417,790,2
SaccadeExp7_font16,17710,Central,29,exp,5,2,close,200,300,50,R,R,TRUE,1614.18599998805,5eda56d66594866448d580c8,1417,790,2
SaccadeExp7_font16,17710,Central,30,exp,5,2,close,600,650,400,B,P,FALSE,793.248000023828,5eda56d66594866448d580c8,1417,790,2
SaccadeExp7_font16,17710,Central,31,exp,5,4,close,1800,300,50,R,R,TRUE,2300.14399999997,5eda56d66594866448d580c8,1417,790,2
SaccadeExp7_font16,17710,Central,32,exp,5,3,close,1000,650,400,P,P,TRUE,1293.86200000002,5eda56d66594866448d580c8,1417,790,2
SaccadeExp7_font16,17710,Central,33,exp,5,4,close,1400,300,50,R,R,TRUE,1438.36200000002,5eda56d66594866448d580c8,1417,790,2
SaccadeExp7_font16,17710,Central,34,exp,5,2,close,1800,650,400,P,P,TRUE,758.087999988056,5eda56d66594866448d580c8,1417,790,2
SaccadeExp7_font16,17710,Central,35,exp,5,4,close,1400,650,400,B,P,FALSE,702.81400002382,5eda56d66594866448d580c8,1417,790,2
SaccadeExp7_font16,17710,Central,36,exp,5,2,close,200,650,400,P,B,FALSE,1150.15600000002,5eda56d66594866448d580c8,1417,790,2
SaccadeExp7_font16,17710,Central,37,exp,5,3,close,1400,300,50,R,R,TRUE,1482.94199999998,5eda56d66594866448d580c8,1417,790,2
SaccadeExp7_font16,17710,Central,38,exp,5,3,close,1400,300,50,B,B,TRUE,1171.81599998806,5eda56d66594866448d580c8,1417,790,2
SaccadeExp7_font16,17710,Central,39,exp,5,4,close,200,300,50,P,P,TRUE,643.92999998806,5eda56d66594866448d580c8,1417,790,2
SaccadeExp7_font16,17710,Central,40,exp,5,2,close,1400,650,400,B,P,FALSE,1192.71000000002,5eda56d66594866448d580c8,1417,790,2
SaccadeExp7_font16,17710,Central,41,exp,5,3,close,600,300,50,R,B,FALSE,850.308000011893,5eda56d66594866448d580c8,1417,790,2
SaccadeExp7_font16,17710,Central,42,exp,5,3,close,1000,300,50,P,P,TRUE,1154.77400001191,5eda56d66594866448d580c8,1417,790,2
SaccadeExp7_font16,17710,Central,43,exp,5,4,close,1800,300,50,P,P,TRUE,799.056999988097,5eda56d66594866448d580c8,1417,790,2
SaccadeExp7_font16,17710,Central,44,exp,5,4,close,1800,650,400,B,P,FALSE,861.566999988107,5eda56d66594866448d580c8,1417,790,2
SaccadeExp7_font16,17710,Central,45,exp,5,1,close,1000,300,50,R,B,FALSE,1372.86699998809,5eda56d66594866448d580c8,1417,790,2
SaccadeExp7_font16,17710,Central,46,exp,5,2,close,1800,300,50,B,R,FALSE,1355.80799997615,5eda56d66594866448d580c8,1417,790,2
SaccadeExp7_font16,17710,Central,47,exp,5,2,close,600,300,50,P,R,FALSE,392.411999988079,5eda56d66594866448d580c8,1417,790,2
SaccadeExp7_font16,17710,Central,48,exp,5,4,close,600,650,400,B,B,TRUE,335.758000023838,5eda56d66594866448d580c8,1417,790,2
SaccadeExp7_font16,17710,Central,49,exp,5,2,close,1000,300,50,R,R,TRUE,999.101000000024,5eda56d66594866448d580c8,1417,790,2
SaccadeExp7_font16,17710,Central,50,exp,5,2,close,1800,650,400,B,B,TRUE,1382.81899998809,5eda56d66594866448d580c8,1417,790,2
SaccadeExp7_font16,17710,Central,51,exp,5,4,close,1400,300,50,P,P,TRUE,784.78899999999,5eda56d66594866448d580c8,1417,790,2
SaccadeExp7_font16,17710,Central,52,exp,5,3,close,1800,300,50,R,B,FALSE,990.544000011927,5eda56d66594866448d580c8,1417,790,2
SaccadeExp7_font16,17710,Central,53,exp,5,1,close,600,650,400,B,B,TRUE,1877.6820000119,5eda56d66594866448d580c8,1417,790,2
SaccadeExp7_font16,17710,Central,54,exp,5,4,close,1000,650,400,P,P,TRUE,1023.04900002386,5eda56d66594866448d580c8,1417,790,2
SaccadeExp7_font16,17710,Central,55,exp,5,2,close,1800,300,50,R,B,FALSE,1869.72100002383,5eda56d66594866448d580c8,1417,790,2
SaccadeExp7_font16,17710,Central,56,exp,5,4,close,600,650,400,R,B,FALSE,914.358999976132,5eda56d66594866448d580c8,1417,790,2
SaccadeExp7_font16,17710,Central,57,exp,5,2,close,1800,650,400,R,P,FALSE,1094.98200002383,5eda56d66594866448d580c8,1417,790,2
SaccadeExp7_font16,17710,Central,58,exp,5,3,close,600,300,50,B,B,TRUE,1037.24199997616,5eda56d66594866448d580c8,1417,790,2
SaccadeExp7_font16,17710,Central,59,exp,5,1,close,1400,650,400,P,B,FALSE,2396.32299999997,5eda56d66594866448d580c8,1417,790,2
SaccadeExp7_font16,17710,Central,60,exp,5,1,close,1000,650,400,P,P,TRUE,962.465000023833,5eda56d66594866448d580c8,1417,790,2
SaccadeExp7_font16,17710,Central,61,exp,5,2,close,200,650,400,B,P,FALSE,854.370999976178,5eda56d66594866448d580c8,1417,790,2
SaccadeExp7_font16,17710,Central,62,exp,5,4,close,1000,650,400,B,R,FALSE,2350.75100001192,5eda56d66594866448d580c8,1417,790,2
SaccadeExp7_font16,17710,Central,63,exp,5,4,close,200,650,400,B,P,FALSE,1779.35899997613,5eda56d66594866448d580c8,1417,790,2
SaccadeExp7_font16,17710,Central,64,exp,5,4,close,1000,300,50,B,P,FALSE,760.424000011932,5eda56d66594866448d580c8,1417,790,2
SaccadeExp7_font16,17710,Central,65,exp,5,4,close,600,300,50,B,P,FALSE,484.204000011901,5eda56d66594866448d580c8,1417,790,2
SaccadeExp7_font16,17710,Central,66,exp,5,1,close,1400,300,50,P,P,TRUE,853.727000000014,5eda56d66594866448d580c8,1417,790,2
SaccadeExp7_font16,17710,Central,67,exp,5,1,close,1000,300,50,P,P,TRUE,788.193000000028,5eda56d66594866448d580c8,1417,790,2
SaccadeExp7_font16,17710,Central,68,exp,5,4,close,1800,650,400,R,B,FALSE,1560.86900000001,5eda56d66594866448d580c8,1417,790,2
SaccadeExp7_font16,17710,Central,69,exp,5,4,close,1400,300,50,B,P,FALSE,1453.05899997614,5eda56d66594866448d580c8,1417,790,2
SaccadeExp7_font16,17710,Central,70,exp,5,2,close,1000,650,400,R,R,TRUE,1724.663,5eda56d66594866448d580c8,1417,790,2
SaccadeExp7_font16,17710,Central,71,exp,5,4,close,200,650,400,P,P,TRUE,2056.5129999881,5eda56d66594866448d580c8,1417,790,2
SaccadeExp7_font16,17710,Central,72,exp,5,3,close,200,650,400,P,P,TRUE,1037.5019999881,5eda56d66594866448d580c8,1417,790,2
SaccadeExp7_font16,17710,Central,73,exp,5,3,close,600,650,400,B,R,FALSE,1372.54000002384,5eda56d66594866448d580c8,1417,790,2
SaccadeExp7_font16,17710,Central,74,exp,5,1,close,1400,300,50,R,P,FALSE,817.609999999986,5eda56d66594866448d580c8,1417,790,2
SaccadeExp7_font16,17710,Central,75,exp,5,1,close,1400,300,50,B,P,FALSE,749.872999976156,5eda56d66594866448d580c8,1417,790,2
SaccadeExp7_font16,17710,Central,76,exp,5,1,close,200,650,400,R,R,TRUE,1147.31699997617,5eda56d66594866448d580c8,1417,790,2
SaccadeExp7_font16,17710,Central,77,exp,5,2,close,1000,650,400,P,P,TRUE,1224.50900002383,5eda56d66594866448d580c8,1417,790,2
SaccadeExp7_font16,17710,Central,78,exp,5,1,close,600,300,50,P,R,FALSE,1007.81899998809,5eda56d66594866448d580c8,1417,790,2
SaccadeExp7_font16,17710,Central,79,exp,5,3,close,1800,650,400,P,P,TRUE,952.370999976178,5eda56d66594866448d580c8,1417,790,2
SaccadeExp7_font16,17710,Central,80,exp,5,2,close,600,300,50,B,B,TRUE,778.324999976205,5eda56d66594866448d580c8,1417,790,2
SaccadeExp7_font16,17710,Central,81,exp,5,4,close,200,650,400,R,B,FALSE,1283.91300001193,5eda56d66594866448d580c8,1417,790,2
SaccadeExp7_font16,17710,Central,82,exp,5,3,close,200,300,50,P,P,TRUE,745.365000011865,5eda56d66594866448d580c8,1417,790,2
SaccadeExp7_font16,17710,Central,83,exp,5,3,close,1400,300,50,P,P,TRUE,729.843000011868,5eda56d66594866448d580c8,1417,790,2
SaccadeExp7_font16,17710,Central,84,exp,5,2,close,200,650,400,R,P,FALSE,871.346999988076,5eda56d66594866448d580c8,1417,790,2
SaccadeExp7_font16,17710,Central,85,exp,5,3,close,1400,650,400,R,P,FALSE,747.976999999955,5eda56d66594866448d580c8,1417,790,2
SaccadeExp7_font16,17710,Central,86,exp,5,2,close,1400,300,50,B,B,TRUE,838.589000011911,5eda56d66594866448d580c8,1417,790,2
SaccadeExp7_font16,17710,Central,87,exp,5,2,close,200,300,50,P,R,FALSE,1338.78700001189,5eda56d66594866448d580c8,1417,790,2
SaccadeExp7_font16,17710,Central,88,exp,5,2,close,1000,650,400,B,B,TRUE,992.95300001197,5eda56d66594866448d580c8,1417,790,2
